[
    {
        "resourceType": "Observation",
        "id": "c6c7b258-446a-4a8b-848a-af805342844a",
        "status": "final",
        "category": [
            {
                "coding": [
                    {
                        "system": "http://terminology.hl7.org/CodeSystem/observation-category",
                        "code": "vital-signs",
                        "display": "Vital Signs"
                    }
                ]
            }
        ],
        "code": {
            "coding": [
                {
                    "system": "http://loinc.org",
                    "code": "85354-9",
                    "display": "Blood pressure"
                }
            ]
        },
        "subject": {
            "reference": "Patient/c6c7b258-446a-4a8b-848a-af805342844a",
            "display": "Chris Moran"
        },
        "effectiveDateTime": "2021-12-07",
        "component": [
            {
                "code": {
                    "coding": [
                        {
                            "system": "http://loinc.org",
                            "code": "8480-6",
                            "display": "Systolic Blood Pressure"
                        }
                    ]
                },
                "valueQuantity": {
                    "value": 124.0,
                    "unit": "mmHg",
                    "system": "http://unitsofmeasure.org",
                    "code": "mm[Hg]"
                }
            },
            {
                "code": {
                    "coding": [
                        {
                            "system": "http://loinc.org",
                            "code": "8462-4",
                            "display": "Diastolic Blood Pressure"
                        }
                    ]
                },
                "valueQuantity": {
                    "value": 84.0,
                    "unit": "mmHg",
                    "system": "http://unitsofmeasure.org",
                    "code": "mm[Hg]"
                }
            }
        ]
    },
    {
        "resourceType": "Observation",
        "id": "08c5f73b-2300-4a03-8113-44f2c9246a6b",
        "status": "final",
        "category": [
            {
                "coding": [
                    {
                        "system": "http://terminology.hl7.org/CodeSystem/observation-category",
                        "code": "vital-signs",
                        "display": "Vital Signs"
                    }
                ]
            }
        ],
        "code": {
            "coding": [
                {
                    "system": "http://loinc.org",
                    "code": "85354-9",
                    "display": "Blood pressure"
                }
            ]
        },
        "subject": {
            "reference": "Patient/08c5f73b-2300-4a03-8113-44f2c9246a6b",
            "display": "Jesse Baker"
        },
        "effectiveDateTime": "2022-11-15",
        "component": [
            {
                "code": {
                    "coding": [
                        {
                            "system": "http://loinc.org",
                            "code": "8480-6",
                            "display": "Systolic Blood Pressure"
                        }
                    ]
                },
                "valueQuantity": {
                    "value": 113.0,
                    "unit": "mmHg",
                    "system": "http://unitsofmeasure.org",
                    "code": "mm[Hg]"
                }
            },
            {
                "code": {
                    "coding": [
                        {
                            "system": "http://loinc.org",
                            "code": "8462-4",
                            "display": "Diastolic Blood Pressure"
                        }
                    ]
                },
                "valueQuantity": {
                    "value": 73.0,
                    "unit": "mmHg",
                    "system": "http://unitsofmeasure.org",
                    "code": "mm[Hg]"
                }
            }
        ]
    },
    {
        "resourceType": "Observation",
        "id": "dfac4c52-4d7d-4438-9149-50c5e8c341ff",
        "status": "final",
        "category": [
            {
                "coding": [
                    {
                        "system": "http://terminology.hl7.org/CodeSystem/observation-category",
                        "code": "vital-signs",
                        "display": "Vital Signs"
                    }
                ]
            }
        ],
        "code": {
            "coding": [
                {
                    "system": "http://loinc.org",
                    "code": "85354-9",
                    "display": "Blood pressure"
                }
            ]
        },
        "subject": {
            "reference": "Patient/dfac4c52-4d7d-4438-9149-50c5e8c341ff",
            "display": "Mikayla Lee"
        },
        "effectiveDateTime": "2020-11-01",
        "component": [
            {
                "code": {
                    "coding": [
                        {
                            "system": "http://loinc.org",
                            "code": "8480-6",
                            "display": "Systolic Blood Pressure"
                        }
                    ]
                },
                "valueQuantity": {
                    "value": 99.0,
                    "unit": "mmHg",
                    "system": "http://unitsofmeasure.org",
                    "code": "mm[Hg]"
                }
            },
            {
                "code": {
                    "coding": [
                        {
                            "system": "http://loinc.org",
                            "code": "8462-4",
                            "display": "Diastolic Blood Pressure"
                        }
                    ]
                },
                "valueQuantity": {
                    "value": 61.0,
                    "unit": "mmHg",
                    "system": "http://unitsofmeasure.org",
                    "code": "mm[Hg]"
                }
            }
        ]
    },
    {
        "resourceType": "Observation",
        "id": "6b40698a-f97f-4bc7-acb1-684138d31e4e",
        "status": "final",
        "category": [
            {
                "coding": [
                    {
                        "system": "http://terminology.hl7.org/CodeSystem/observation-category",
                        "code": "vital-signs",
                        "display": "Vital Signs"
                    }
                ]
            }
        ],
        "code": {
            "coding": [
                {
                    "system": "http://loinc.org",
                    "code": "85354-9",
                    "display": "Blood pressure"
                }
            ]
        },
        "subject": {
            "reference": "Patient/6b40698a-f97f-4bc7-acb1-684138d31e4e",
            "display": "Dwayne Rivera"
        },
        "effectiveDateTime": "2023-08-10",
        "component": [
            {
                "code": {
                    "coding": [
                        {
                            "system": "http://loinc.org",
                            "code": "8480-6",
                            "display": "Systolic Blood Pressure"
                        }
                    ]
                },
                "valueQuantity": {
                    "value": 106.0,
                    "unit": "mmHg",
                    "system": "http://unitsofmeasure.org",
                    "code": "mm[Hg]"
                }
            },
            {
                "code": {
                    "coding": [
                        {
                            "system": "http://loinc.org",
                            "code": "8462-4",
                            "display": "Diastolic Blood Pressure"
                        }
                    ]
                },
                "valueQuantity": {
                    "value": 79.0,
                    "unit": "mmHg",
                    "system": "http://unitsofmeasure.org",
                    "code": "mm[Hg]"
                }
            }
        ]
    },
    {
        "resourceType": "Observation",
        "id": "aa8ab4b8-4035-48fe-b767-06b0f6094c32",
        "status": "final",
        "category": [
            {
                "coding": [
                    {
                        "system": "http://terminology.hl7.org/CodeSystem/observation-category",
                        "code": "vital-signs",
                        "display": "Vital Signs"
                    }
                ]
            }
        ],
        "code": {
            "coding": [
                {
                    "system": "http://loinc.org",
                    "code": "85354-9",
                    "display": "Blood pressure"
                }
            ]
        },
        "subject": {
            "reference": "Patient/aa8ab4b8-4035-48fe-b767-06b0f6094c32",
            "display": "Tina Salazar"
        },
        "effectiveDateTime": "2021-08-23",
        "component": [
            {
                "code": {
                    "coding": [
                        {
                            "system": "http://loinc.org",
                            "code": "8480-6",
                            "display": "Systolic Blood Pressure"
                        }
                    ]
                },
                "valueQuantity": {
                    "value": 102.0,
                    "unit": "mmHg",
                    "system": "http://unitsofmeasure.org",
                    "code": "mm[Hg]"
                }
            },
            {
                "code": {
                    "coding": [
                        {
                            "system": "http://loinc.org",
                            "code": "8462-4",
                            "display": "Diastolic Blood Pressure"
                        }
                    ]
                },
                "valueQuantity": {
                    "value": 60.0,
                    "unit": "mmHg",
                    "system": "http://unitsofmeasure.org",
                    "code": "mm[Hg]"
                }
            }
        ]
    },
    {
        "resourceType": "Observation",
        "id": "a37be1a8-bd41-4f94-bb90-eb0e86d86dc4",
        "status": "final",
        "category": [
            {
                "coding": [
                    {
                        "system": "http://terminology.hl7.org/CodeSystem/observation-category",
                        "code": "vital-signs",
                        "display": "Vital Signs"
                    }
                ]
            }
        ],
        "code": {
            "coding": [
                {
                    "system": "http://loinc.org",
                    "code": "85354-9",
                    "display": "Blood pressure"
                }
            ]
        },
        "subject": {
            "reference": "Patient/a37be1a8-bd41-4f94-bb90-eb0e86d86dc4",
            "display": "Robert Bowman"
        },
        "effectiveDateTime": "2022-02-27",
        "component": [
            {
                "code": {
                    "coding": [
                        {
                            "system": "http://loinc.org",
                            "code": "8480-6",
                            "display": "Systolic Blood Pressure"
                        }
                    ]
                },
                "valueQuantity": {
                    "value": 96.0,
                    "unit": "mmHg",
                    "system": "http://unitsofmeasure.org",
                    "code": "mm[Hg]"
                }
            },
            {
                "code": {
                    "coding": [
                        {
                            "system": "http://loinc.org",
                            "code": "8462-4",
                            "display": "Diastolic Blood Pressure"
                        }
                    ]
                },
                "valueQuantity": {
                    "value": 76.0,
                    "unit": "mmHg",
                    "system": "http://unitsofmeasure.org",
                    "code": "mm[Hg]"
                }
            }
        ]
    },
    {
        "resourceType": "Observation",
        "id": "eff0d08b-f9aa-489b-a976-2c3fce79029e",
        "status": "final",
        "category": [
            {
                "coding": [
                    {
                        "system": "http://terminology.hl7.org/CodeSystem/observation-category",
                        "code": "vital-signs",
                        "display": "Vital Signs"
                    }
                ]
            }
        ],
        "code": {
            "coding": [
                {
                    "system": "http://loinc.org",
                    "code": "85354-9",
                    "display": "Blood pressure"
                }
            ]
        },
        "subject": {
            "reference": "Patient/eff0d08b-f9aa-489b-a976-2c3fce79029e",
            "display": "Catherine Olson"
        },
        "effectiveDateTime": "2020-03-06",
        "component": [
            {
                "code": {
                    "coding": [
                        {
                            "system": "http://loinc.org",
                            "code": "8480-6",
                            "display": "Systolic Blood Pressure"
                        }
                    ]
                },
                "valueQuantity": {
                    "value": 106.0,
                    "unit": "mmHg",
                    "system": "http://unitsofmeasure.org",
                    "code": "mm[Hg]"
                }
            },
            {
                "code": {
                    "coding": [
                        {
                            "system": "http://loinc.org",
                            "code": "8462-4",
                            "display": "Diastolic Blood Pressure"
                        }
                    ]
                },
                "valueQuantity": {
                    "value": 60.0,
                    "unit": "mmHg",
                    "system": "http://unitsofmeasure.org",
                    "code": "mm[Hg]"
                }
            }
        ]
    },
    {
        "resourceType": "Observation",
        "id": "b1b39146-b838-4b31-b979-e0aa33c198ce",
        "status": "final",
        "category": [
            {
                "coding": [
                    {
                        "system": "http://terminology.hl7.org/CodeSystem/observation-category",
                        "code": "vital-signs",
                        "display": "Vital Signs"
                    }
                ]
            }
        ],
        "code": {
            "coding": [
                {
                    "system": "http://loinc.org",
                    "code": "85354-9",
                    "display": "Blood pressure"
                }
            ]
        },
        "subject": {
            "reference": "Patient/b1b39146-b838-4b31-b979-e0aa33c198ce",
            "display": "Ruth Ortiz"
        },
        "effectiveDateTime": "2023-09-27",
        "component": [
            {
                "code": {
                    "coding": [
                        {
                            "system": "http://loinc.org",
                            "code": "8480-6",
                            "display": "Systolic Blood Pressure"
                        }
                    ]
                },
                "valueQuantity": {
                    "value": 112.0,
                    "unit": "mmHg",
                    "system": "http://unitsofmeasure.org",
                    "code": "mm[Hg]"
                }
            },
            {
                "code": {
                    "coding": [
                        {
                            "system": "http://loinc.org",
                            "code": "8462-4",
                            "display": "Diastolic Blood Pressure"
                        }
                    ]
                },
                "valueQuantity": {
                    "value": 79.0,
                    "unit": "mmHg",
                    "system": "http://unitsofmeasure.org",
                    "code": "mm[Hg]"
                }
            }
        ]
    },
    {
        "resourceType": "Observation",
        "id": "cfbb0c62-7818-42a8-a296-be2da1160d26",
        "status": "final",
        "category": [
            {
                "coding": [
                    {
                        "system": "http://terminology.hl7.org/CodeSystem/observation-category",
                        "code": "vital-signs",
                        "display": "Vital Signs"
                    }
                ]
            }
        ],
        "code": {
            "coding": [
                {
                    "system": "http://loinc.org",
                    "code": "85354-9",
                    "display": "Blood pressure"
                }
            ]
        },
        "subject": {
            "reference": "Patient/cfbb0c62-7818-42a8-a296-be2da1160d26",
            "display": "Brittany Kerr"
        },
        "effectiveDateTime": "2023-05-31",
        "component": [
            {
                "code": {
                    "coding": [
                        {
                            "system": "http://loinc.org",
                            "code": "8480-6",
                            "display": "Systolic Blood Pressure"
                        }
                    ]
                },
                "valueQuantity": {
                    "value": 95.0,
                    "unit": "mmHg",
                    "system": "http://unitsofmeasure.org",
                    "code": "mm[Hg]"
                }
            },
            {
                "code": {
                    "coding": [
                        {
                            "system": "http://loinc.org",
                            "code": "8462-4",
                            "display": "Diastolic Blood Pressure"
                        }
                    ]
                },
                "valueQuantity": {
                    "value": 64.0,
                    "unit": "mmHg",
                    "system": "http://unitsofmeasure.org",
                    "code": "mm[Hg]"
                }
            }
        ]
    },
    {
        "resourceType": "Observation",
        "id": "4ad77eb6-1e19-4e35-8fce-e06c5b6ac5dc",
        "status": "final",
        "category": [
            {
                "coding": [
                    {
                        "system": "http://terminology.hl7.org/CodeSystem/observation-category",
                        "code": "vital-signs",
                        "display": "Vital Signs"
                    }
                ]
            }
        ],
        "code": {
            "coding": [
                {
                    "system": "http://loinc.org",
                    "code": "85354-9",
                    "display": "Blood pressure"
                }
            ]
        },
        "subject": {
            "reference": "Patient/4ad77eb6-1e19-4e35-8fce-e06c5b6ac5dc",
            "display": "John Campbell"
        },
        "effectiveDateTime": "2024-04-07",
        "component": [
            {
                "code": {
                    "coding": [
                        {
                            "system": "http://loinc.org",
                            "code": "8480-6",
                            "display": "Systolic Blood Pressure"
                        }
                    ]
                },
                "valueQuantity": {
                    "value": 101.0,
                    "unit": "mmHg",
                    "system": "http://unitsofmeasure.org",
                    "code": "mm[Hg]"
                }
            },
            {
                "code": {
                    "coding": [
                        {
                            "system": "http://loinc.org",
                            "code": "8462-4",
                            "display": "Diastolic Blood Pressure"
                        }
                    ]
                },
                "valueQuantity": {
                    "value": 73.0,
                    "unit": "mmHg",
                    "system": "http://unitsofmeasure.org",
                    "code": "mm[Hg]"
                }
            }
        ]
    },
    {
        "resourceType": "Observation",
        "id": "eec75dc0-764a-4c45-97c0-f660e195da1e",
        "status": "final",
        "category": [
            {
                "coding": [
                    {
                        "system": "http://terminology.hl7.org/CodeSystem/observation-category",
                        "code": "vital-signs",
                        "display": "Vital Signs"
                    }
                ]
            }
        ],
        "code": {
            "coding": [
                {
                    "system": "http://loinc.org",
                    "code": "85354-9",
                    "display": "Blood pressure"
                }
            ]
        },
        "subject": {
            "reference": "Patient/eec75dc0-764a-4c45-97c0-f660e195da1e",
            "display": "Christopher Garcia"
        },
        "effectiveDateTime": "2020-06-21",
        "component": [
            {
                "code": {
                    "coding": [
                        {
                            "system": "http://loinc.org",
                            "code": "8480-6",
                            "display": "Systolic Blood Pressure"
                        }
                    ]
                },
                "valueQuantity": {
                    "value": 98.0,
                    "unit": "mmHg",
                    "system": "http://unitsofmeasure.org",
                    "code": "mm[Hg]"
                }
            },
            {
                "code": {
                    "coding": [
                        {
                            "system": "http://loinc.org",
                            "code": "8462-4",
                            "display": "Diastolic Blood Pressure"
                        }
                    ]
                },
                "valueQuantity": {
                    "value": 74.0,
                    "unit": "mmHg",
                    "system": "http://unitsofmeasure.org",
                    "code": "mm[Hg]"
                }
            }
        ]
    },
    {
        "resourceType": "Observation",
        "id": "8218d860-c4b5-4fe8-86b8-399ca0d4b01d",
        "status": "final",
        "category": [
            {
                "coding": [
                    {
                        "system": "http://terminology.hl7.org/CodeSystem/observation-category",
                        "code": "vital-signs",
                        "display": "Vital Signs"
                    }
                ]
            }
        ],
        "code": {
            "coding": [
                {
                    "system": "http://loinc.org",
                    "code": "85354-9",
                    "display": "Blood pressure"
                }
            ]
        },
        "subject": {
            "reference": "Patient/8218d860-c4b5-4fe8-86b8-399ca0d4b01d",
            "display": "Matthew Tucker"
        },
        "effectiveDateTime": "2024-11-26",
        "component": [
            {
                "code": {
                    "coding": [
                        {
                            "system": "http://loinc.org",
                            "code": "8480-6",
                            "display": "Systolic Blood Pressure"
                        }
                    ]
                },
                "valueQuantity": {
                    "value": 99.0,
                    "unit": "mmHg",
                    "system": "http://unitsofmeasure.org",
                    "code": "mm[Hg]"
                }
            },
            {
                "code": {
                    "coding": [
                        {
                            "system": "http://loinc.org",
                            "code": "8462-4",
                            "display": "Diastolic Blood Pressure"
                        }
                    ]
                },
                "valueQuantity": {
                    "value": 71.0,
                    "unit": "mmHg",
                    "system": "http://unitsofmeasure.org",
                    "code": "mm[Hg]"
                }
            }
        ]
    },
    {
        "resourceType": "Observation",
        "id": "69695602-a4ae-4854-9963-ae3252b7412b",
        "status": "final",
        "category": [
            {
                "coding": [
                    {
                        "system": "http://terminology.hl7.org/CodeSystem/observation-category",
                        "code": "vital-signs",
                        "display": "Vital Signs"
                    }
                ]
            }
        ],
        "code": {
            "coding": [
                {
                    "system": "http://loinc.org",
                    "code": "85354-9",
                    "display": "Blood pressure"
                }
            ]
        },
        "subject": {
            "reference": "Patient/69695602-a4ae-4854-9963-ae3252b7412b",
            "display": "Melissa Garcia"
        },
        "effectiveDateTime": "2023-02-14",
        "component": [
            {
                "code": {
                    "coding": [
                        {
                            "system": "http://loinc.org",
                            "code": "8480-6",
                            "display": "Systolic Blood Pressure"
                        }
                    ]
                },
                "valueQuantity": {
                    "value": 108.0,
                    "unit": "mmHg",
                    "system": "http://unitsofmeasure.org",
                    "code": "mm[Hg]"
                }
            },
            {
                "code": {
                    "coding": [
                        {
                            "system": "http://loinc.org",
                            "code": "8462-4",
                            "display": "Diastolic Blood Pressure"
                        }
                    ]
                },
                "valueQuantity": {
                    "value": 73.0,
                    "unit": "mmHg",
                    "system": "http://unitsofmeasure.org",
                    "code": "mm[Hg]"
                }
            }
        ]
    },
    {
        "resourceType": "Observation",
        "id": "d2121f2f-8d2e-4a20-ac5e-40426fc6dbf4",
        "status": "final",
        "category": [
            {
                "coding": [
                    {
                        "system": "http://terminology.hl7.org/CodeSystem/observation-category",
                        "code": "vital-signs",
                        "display": "Vital Signs"
                    }
                ]
            }
        ],
        "code": {
            "coding": [
                {
                    "system": "http://loinc.org",
                    "code": "85354-9",
                    "display": "Blood pressure"
                }
            ]
        },
        "subject": {
            "reference": "Patient/d2121f2f-8d2e-4a20-ac5e-40426fc6dbf4",
            "display": "Briana Ross"
        },
        "effectiveDateTime": "2023-10-23",
        "component": [
            {
                "code": {
                    "coding": [
                        {
                            "system": "http://loinc.org",
                            "code": "8480-6",
                            "display": "Systolic Blood Pressure"
                        }
                    ]
                },
                "valueQuantity": {
                    "value": 98.0,
                    "unit": "mmHg",
                    "system": "http://unitsofmeasure.org",
                    "code": "mm[Hg]"
                }
            },
            {
                "code": {
                    "coding": [
                        {
                            "system": "http://loinc.org",
                            "code": "8462-4",
                            "display": "Diastolic Blood Pressure"
                        }
                    ]
                },
                "valueQuantity": {
                    "value": 84.0,
                    "unit": "mmHg",
                    "system": "http://unitsofmeasure.org",
                    "code": "mm[Hg]"
                }
            }
        ]
    },
    {
        "resourceType": "Observation",
        "id": "3a52c43c-a917-4aaf-a7c1-643dac7313de",
        "status": "final",
        "category": [
            {
                "coding": [
                    {
                        "system": "http://terminology.hl7.org/CodeSystem/observation-category",
                        "code": "vital-signs",
                        "display": "Vital Signs"
                    }
                ]
            }
        ],
        "code": {
            "coding": [
                {
                    "system": "http://loinc.org",
                    "code": "85354-9",
                    "display": "Blood pressure"
                }
            ]
        },
        "subject": {
            "reference": "Patient/3a52c43c-a917-4aaf-a7c1-643dac7313de",
            "display": "Crystal Arias"
        },
        "effectiveDateTime": "2021-10-29",
        "component": [
            {
                "code": {
                    "coding": [
                        {
                            "system": "http://loinc.org",
                            "code": "8480-6",
                            "display": "Systolic Blood Pressure"
                        }
                    ]
                },
                "valueQuantity": {
                    "value": 112.0,
                    "unit": "mmHg",
                    "system": "http://unitsofmeasure.org",
                    "code": "mm[Hg]"
                }
            },
            {
                "code": {
                    "coding": [
                        {
                            "system": "http://loinc.org",
                            "code": "8462-4",
                            "display": "Diastolic Blood Pressure"
                        }
                    ]
                },
                "valueQuantity": {
                    "value": 73.0,
                    "unit": "mmHg",
                    "system": "http://unitsofmeasure.org",
                    "code": "mm[Hg]"
                }
            }
        ]
    },
    {
        "resourceType": "Observation",
        "id": "c3a22641-737e-4ab2-8d17-4f5256d4c352",
        "status": "final",
        "category": [
            {
                "coding": [
                    {
                        "system": "http://terminology.hl7.org/CodeSystem/observation-category",
                        "code": "vital-signs",
                        "display": "Vital Signs"
                    }
                ]
            }
        ],
        "code": {
            "coding": [
                {
                    "system": "http://loinc.org",
                    "code": "85354-9",
                    "display": "Blood pressure"
                }
            ]
        },
        "subject": {
            "reference": "Patient/c3a22641-737e-4ab2-8d17-4f5256d4c352",
            "display": "Allen Gonzalez"
        },
        "effectiveDateTime": "2023-05-03",
        "component": [
            {
                "code": {
                    "coding": [
                        {
                            "system": "http://loinc.org",
                            "code": "8480-6",
                            "display": "Systolic Blood Pressure"
                        }
                    ]
                },
                "valueQuantity": {
                    "value": 106.0,
                    "unit": "mmHg",
                    "system": "http://unitsofmeasure.org",
                    "code": "mm[Hg]"
                }
            },
            {
                "code": {
                    "coding": [
                        {
                            "system": "http://loinc.org",
                            "code": "8462-4",
                            "display": "Diastolic Blood Pressure"
                        }
                    ]
                },
                "valueQuantity": {
                    "value": 69.0,
                    "unit": "mmHg",
                    "system": "http://unitsofmeasure.org",
                    "code": "mm[Hg]"
                }
            }
        ]
    }
]