[
    {
        "resourceType": "Observation",
        "id": "6e45fb0b-dc59-4c32-8f1c-296265c7163d",
        "status": "final",
        "category": [
            {
                "coding": [
                    {
                        "system": "http://terminology.hl7.org/CodeSystem/observation-category",
                        "code": "vital-signs",
                        "display": "Vital Signs"
                    }
                ]
            }
        ],
        "code": {
            "coding": [
                {
                    "system": "http://loinc.org",
                    "code": "85354-9",
                    "display": "Blood pressure"
                }
            ]
        },
        "subject": {
            "reference": "Patient/6e45fb0b-dc59-4c32-8f1c-296265c7163d",
            "display": "Jamie Howell"
        },
        "effectiveDateTime": "2022-05-11",
        "component": [
            {
                "code": {
                    "coding": [
                        {
                            "system": "http://loinc.org",
                            "code": "8480-6",
                            "display": "Systolic Blood Pressure"
                        }
                    ]
                },
                "valueQuantity": {
                    "value": 94.0,
                    "unit": "mmHg",
                    "system": "http://unitsofmeasure.org",
                    "code": "mm[Hg]"
                }
            },
            {
                "code": {
                    "coding": [
                        {
                            "system": "http://loinc.org",
                            "code": "8462-4",
                            "display": "Diastolic Blood Pressure"
                        }
                    ]
                },
                "valueQuantity": {
                    "value": 72.0,
                    "unit": "mmHg",
                    "system": "http://unitsofmeasure.org",
                    "code": "mm[Hg]"
                }
            }
        ]
    },
    {
        "resourceType": "Observation",
        "id": "361e5557-8e9e-4e70-93d1-cc6ae63f95a8",
        "status": "final",
        "category": [
            {
                "coding": [
                    {
                        "system": "http://terminology.hl7.org/CodeSystem/observation-category",
                        "code": "vital-signs",
                        "display": "Vital Signs"
                    }
                ]
            }
        ],
        "code": {
            "coding": [
                {
                    "system": "http://loinc.org",
                    "code": "85354-9",
                    "display": "Blood pressure"
                }
            ]
        },
        "subject": {
            "reference": "Patient/361e5557-8e9e-4e70-93d1-cc6ae63f95a8",
            "display": "Christopher Mccarthy"
        },
        "effectiveDateTime": "2022-01-23",
        "component": [
            {
                "code": {
                    "coding": [
                        {
                            "system": "http://loinc.org",
                            "code": "8480-6",
                            "display": "Systolic Blood Pressure"
                        }
                    ]
                },
                "valueQuantity": {
                    "value": 137.0,
                    "unit": "mmHg",
                    "system": "http://unitsofmeasure.org",
                    "code": "mm[Hg]"
                }
            },
            {
                "code": {
                    "coding": [
                        {
                            "system": "http://loinc.org",
                            "code": "8462-4",
                            "display": "Diastolic Blood Pressure"
                        }
                    ]
                },
                "valueQuantity": {
                    "value": 86.0,
                    "unit": "mmHg",
                    "system": "http://unitsofmeasure.org",
                    "code": "mm[Hg]"
                }
            }
        ]
    },
    {
        "resourceType": "Observation",
        "id": "0f7bc2b3-f6e4-4068-90bf-66484ec648da",
        "status": "final",
        "category": [
            {
                "coding": [
                    {
                        "system": "http://terminology.hl7.org/CodeSystem/observation-category",
                        "code": "vital-signs",
                        "display": "Vital Signs"
                    }
                ]
            }
        ],
        "code": {
            "coding": [
                {
                    "system": "http://loinc.org",
                    "code": "85354-9",
                    "display": "Blood pressure"
                }
            ]
        },
        "subject": {
            "reference": "Patient/0f7bc2b3-f6e4-4068-90bf-66484ec648da",
            "display": "Samantha Watson"
        },
        "effectiveDateTime": "2021-10-17",
        "component": [
            {
                "code": {
                    "coding": [
                        {
                            "system": "http://loinc.org",
                            "code": "8480-6",
                            "display": "Systolic Blood Pressure"
                        }
                    ]
                },
                "valueQuantity": {
                    "value": 92.0,
                    "unit": "mmHg",
                    "system": "http://unitsofmeasure.org",
                    "code": "mm[Hg]"
                }
            },
            {
                "code": {
                    "coding": [
                        {
                            "system": "http://loinc.org",
                            "code": "8462-4",
                            "display": "Diastolic Blood Pressure"
                        }
                    ]
                },
                "valueQuantity": {
                    "value": 68.0,
                    "unit": "mmHg",
                    "system": "http://unitsofmeasure.org",
                    "code": "mm[Hg]"
                }
            }
        ]
    },
    {
        "resourceType": "Observation",
        "id": "860dbf0f-d0eb-4a62-a482-78ed2b5c1dc5",
        "status": "final",
        "category": [
            {
                "coding": [
                    {
                        "system": "http://terminology.hl7.org/CodeSystem/observation-category",
                        "code": "vital-signs",
                        "display": "Vital Signs"
                    }
                ]
            }
        ],
        "code": {
            "coding": [
                {
                    "system": "http://loinc.org",
                    "code": "85354-9",
                    "display": "Blood pressure"
                }
            ]
        },
        "subject": {
            "reference": "Patient/860dbf0f-d0eb-4a62-a482-78ed2b5c1dc5",
            "display": "Jacob Hernandez"
        },
        "effectiveDateTime": "2024-04-23",
        "component": [
            {
                "code": {
                    "coding": [
                        {
                            "system": "http://loinc.org",
                            "code": "8480-6",
                            "display": "Systolic Blood Pressure"
                        }
                    ]
                },
                "valueQuantity": {
                    "value": 94.0,
                    "unit": "mmHg",
                    "system": "http://unitsofmeasure.org",
                    "code": "mm[Hg]"
                }
            },
            {
                "code": {
                    "coding": [
                        {
                            "system": "http://loinc.org",
                            "code": "8462-4",
                            "display": "Diastolic Blood Pressure"
                        }
                    ]
                },
                "valueQuantity": {
                    "value": 61.0,
                    "unit": "mmHg",
                    "system": "http://unitsofmeasure.org",
                    "code": "mm[Hg]"
                }
            }
        ]
    },
    {
        "resourceType": "Observation",
        "id": "8021f989-b232-47d8-9aa7-c7a5ae5e7719",
        "status": "final",
        "category": [
            {
                "coding": [
                    {
                        "system": "http://terminology.hl7.org/CodeSystem/observation-category",
                        "code": "vital-signs",
                        "display": "Vital Signs"
                    }
                ]
            }
        ],
        "code": {
            "coding": [
                {
                    "system": "http://loinc.org",
                    "code": "85354-9",
                    "display": "Blood pressure"
                }
            ]
        },
        "subject": {
            "reference": "Patient/8021f989-b232-47d8-9aa7-c7a5ae5e7719",
            "display": "Christine Matthews"
        },
        "effectiveDateTime": "2021-05-20",
        "component": [
            {
                "code": {
                    "coding": [
                        {
                            "system": "http://loinc.org",
                            "code": "8480-6",
                            "display": "Systolic Blood Pressure"
                        }
                    ]
                },
                "valueQuantity": {
                    "value": 107.0,
                    "unit": "mmHg",
                    "system": "http://unitsofmeasure.org",
                    "code": "mm[Hg]"
                }
            },
            {
                "code": {
                    "coding": [
                        {
                            "system": "http://loinc.org",
                            "code": "8462-4",
                            "display": "Diastolic Blood Pressure"
                        }
                    ]
                },
                "valueQuantity": {
                    "value": 60.0,
                    "unit": "mmHg",
                    "system": "http://unitsofmeasure.org",
                    "code": "mm[Hg]"
                }
            }
        ]
    },
    {
        "id": "d6ef236e-1ffd-4035-a032-d9624d984942",
        "status": "final",
        "category": [
            {
                "coding": [
                    {
                        "system": "http://terminology.hl7.org/CodeSystem/observation-category",
                        "code": "vital-signs",
                        "display": "Vital Signs"
                    }
                ]
            }
        ],
        "code": {
            "coding": [
                {
                    "system": "http://loinc.org",
                    "code": "85354-9",
                    "display": "Blood pressure"
                }
            ]
        },
        "subject": {
            "reference": "Patient/d6ef236e-1ffd-4035-a032-d9624d984942",
            "display": "Scott Herrera"
        },
        "effectiveDateTime": "2020-01-05T19:21:51+0000",
        "component": [
            {
                "code": {
                    "coding": [
                        {
                            "system": "http://loinc.org",
                            "code": "8480-6",
                            "display": "Systolic Blood Pressure"
                        }
                    ]
                },
                "valueQuantity": {
                    "value": 99,
                    "unit": "mmHg",
                    "system": "http://unitsofmeasure.org",
                    "code": "mm[Hg]"
                }
            },
            {
                "code": {
                    "coding": [
                        {
                            "system": "http://loinc.org",
                            "code": "8462-4",
                            "display": "Diastolic Blood Pressure"
                        }
                    ]
                },
                "valueQuantity": {
                    "value": 73,
                    "unit": "mmHg",
                    "system": "http://unitsofmeasure.org",
                    "code": "mm[Hg]"
                }
            }
        ]
    },
    {
        "id": "4c0865b3-6130-4384-8465-4c34944ac844",
        "status": "final",
        "category": [
            {
                "coding": [
                    {
                        "system": "http://terminology.hl7.org/CodeSystem/observation-category",
                        "code": "vital-signs",
                        "display": "Vital Signs"
                    }
                ]
            }
        ],
        "code": {
            "coding": [
                {
                    "system": "http://loinc.org",
                    "code": "85354-9",
                    "display": "Blood pressure"
                }
            ]
        },
        "subject": {
            "reference": "Patient/4c0865b3-6130-4384-8465-4c34944ac844",
            "display": "Eddie Pugh"
        },
        "effectiveDateTime": "2020-01-11T07:14:10+0000",
        "component": [
            {
                "code": {
                    "coding": [
                        {
                            "system": "http://loinc.org",
                            "code": "8480-6",
                            "display": "Systolic Blood Pressure"
                        }
                    ]
                },
                "valueQuantity": {
                    "value": 114,
                    "unit": "mmHg",
                    "system": "http://unitsofmeasure.org",
                    "code": "mm[Hg]"
                }
            },
            {
                "code": {
                    "coding": [
                        {
                            "system": "http://loinc.org",
                            "code": "8462-4",
                            "display": "Diastolic Blood Pressure"
                        }
                    ]
                },
                "valueQuantity": {
                    "value": 65,
                    "unit": "mmHg",
                    "system": "http://unitsofmeasure.org",
                    "code": "mm[Hg]"
                }
            }
        ]
    },
    {
        "id": "ccc42532-d42f-4c32-ac9a-a45579c394a9",
        "status": "final",
        "category": [
            {
                "coding": [
                    {
                        "system": "http://terminology.hl7.org/CodeSystem/observation-category",
                        "code": "vital-signs",
                        "display": "Vital Signs"
                    }
                ]
            }
        ],
        "code": {
            "coding": [
                {
                    "system": "http://loinc.org",
                    "code": "85354-9",
                    "display": "Blood pressure"
                }
            ]
        },
        "subject": {
            "reference": "Patient/ccc42532-d42f-4c32-ac9a-a45579c394a9",
            "display": "Mckenzie Monroe"
        },
        "effectiveDateTime": "2020-01-25T13:06:39+0000",
        "component": [
            {
                "code": {
                    "coding": [
                        {
                            "system": "http://loinc.org",
                            "code": "8480-6",
                            "display": "Systolic Blood Pressure"
                        }
                    ]
                },
                "valueQuantity": {
                    "value": 93,
                    "unit": "mmHg",
                    "system": "http://unitsofmeasure.org",
                    "code": "mm[Hg]"
                }
            },
            {
                "code": {
                    "coding": [
                        {
                            "system": "http://loinc.org",
                            "code": "8462-4",
                            "display": "Diastolic Blood Pressure"
                        }
                    ]
                },
                "valueQuantity": {
                    "value": 87,
                    "unit": "mmHg",
                    "system": "http://unitsofmeasure.org",
                    "code": "mm[Hg]"
                }
            }
        ]
    },
    {
        "id": "77b4b233-60ad-4175-bd75-aee8f658e408",
        "status": "final",
        "category": [
            {
                "coding": [
                    {
                        "system": "http://terminology.hl7.org/CodeSystem/observation-category",
                        "code": "vital-signs",
                        "display": "Vital Signs"
                    }
                ]
            }
        ],
        "code": {
            "coding": [
                {
                    "system": "http://loinc.org",
                    "code": "85354-9",
                    "display": "Blood pressure"
                }
            ]
        },
        "subject": {
            "reference": "Patient/77b4b233-60ad-4175-bd75-aee8f658e408",
            "display": "Joseph Santiago"
        },
        "effectiveDateTime": "2020-02-24T17:58:47+0000",
        "component": [
            {
                "code": {
                    "coding": [
                        {
                            "system": "http://loinc.org",
                            "code": "8480-6",
                            "display": "Systolic Blood Pressure"
                        }
                    ]
                },
                "valueQuantity": {
                    "value": 95,
                    "unit": "mmHg",
                    "system": "http://unitsofmeasure.org",
                    "code": "mm[Hg]"
                }
            },
            {
                "code": {
                    "coding": [
                        {
                            "system": "http://loinc.org",
                            "code": "8462-4",
                            "display": "Diastolic Blood Pressure"
                        }
                    ]
                },
                "valueQuantity": {
                    "value": 62,
                    "unit": "mmHg",
                    "system": "http://unitsofmeasure.org",
                    "code": "mm[Hg]"
                }
            }
        ]
    },
    {
        "id": "0bec6b5c-5bbd-4361-9f0b-d88ab3fc481e",
        "status": "final",
        "category": [
            {
                "coding": [
                    {
                        "system": "http://terminology.hl7.org/CodeSystem/observation-category",
                        "code": "vital-signs",
                        "display": "Vital Signs"
                    }
                ]
            }
        ],
        "code": {
            "coding": [
                {
                    "system": "http://loinc.org",
                    "code": "85354-9",
                    "display": "Blood pressure"
                }
            ]
        },
        "subject": {
            "reference": "Patient/0bec6b5c-5bbd-4361-9f0b-d88ab3fc481e",
            "display": "Kevin Wilson"
        },
        "effectiveDateTime": "2020-02-27T16:04:51+0000",
        "component": [
            {
                "code": {
                    "coding": [
                        {
                            "system": "http://loinc.org",
                            "code": "8480-6",
                            "display": "Systolic Blood Pressure"
                        }
                    ]
                },
                "valueQuantity": {
                    "value": 104,
                    "unit": "mmHg",
                    "system": "http://unitsofmeasure.org",
                    "code": "mm[Hg]"
                }
            },
            {
                "code": {
                    "coding": [
                        {
                            "system": "http://loinc.org",
                            "code": "8462-4",
                            "display": "Diastolic Blood Pressure"
                        }
                    ]
                },
                "valueQuantity": {
                    "value": 71,
                    "unit": "mmHg",
                    "system": "http://unitsofmeasure.org",
                    "code": "mm[Hg]"
                }
            }
        ]
    },
    {
        "id": "4f0f3acc-1df1-4e68-9bc3-685a2f9e6978",
        "status": "final",
        "category": [
            {
                "coding": [
                    {
                        "system": "http://terminology.hl7.org/CodeSystem/observation-category",
                        "code": "vital-signs",
                        "display": "Vital Signs"
                    }
                ]
            }
        ],
        "code": {
            "coding": [
                {
                    "system": "http://loinc.org",
                    "code": "85354-9",
                    "display": "Blood pressure"
                }
            ]
        },
        "subject": {
            "reference": "Patient/4f0f3acc-1df1-4e68-9bc3-685a2f9e6978",
            "display": "Jessica Caldwell"
        },
        "effectiveDateTime": "2020-03-06T15:29:09+0000",
        "component": [
            {
                "code": {
                    "coding": [
                        {
                            "system": "http://loinc.org",
                            "code": "8480-6",
                            "display": "Systolic Blood Pressure"
                        }
                    ]
                },
                "valueQuantity": {
                    "value": 114,
                    "unit": "mmHg",
                    "system": "http://unitsofmeasure.org",
                    "code": "mm[Hg]"
                }
            },
            {
                "code": {
                    "coding": [
                        {
                            "system": "http://loinc.org",
                            "code": "8462-4",
                            "display": "Diastolic Blood Pressure"
                        }
                    ]
                },
                "valueQuantity": {
                    "value": 74,
                    "unit": "mmHg",
                    "system": "http://unitsofmeasure.org",
                    "code": "mm[Hg]"
                }
            }
        ]
    },
    {
        "id": "87fc1490-1118-4832-b494-ed0abac1d64e",
        "status": "final",
        "category": [
            {
                "coding": [
                    {
                        "system": "http://terminology.hl7.org/CodeSystem/observation-category",
                        "code": "vital-signs",
                        "display": "Vital Signs"
                    }
                ]
            }
        ],
        "code": {
            "coding": [
                {
                    "system": "http://loinc.org",
                    "code": "85354-9",
                    "display": "Blood pressure"
                }
            ]
        },
        "subject": {
            "reference": "Patient/87fc1490-1118-4832-b494-ed0abac1d64e",
            "display": "Robert Stewart"
        },
        "effectiveDateTime": "2020-03-16T08:40:33+0000",
        "component": [
            {
                "code": {
                    "coding": [
                        {
                            "system": "http://loinc.org",
                            "code": "8480-6",
                            "display": "Systolic Blood Pressure"
                        }
                    ]
                },
                "valueQuantity": {
                    "value": 95,
                    "unit": "mmHg",
                    "system": "http://unitsofmeasure.org",
                    "code": "mm[Hg]"
                }
            },
            {
                "code": {
                    "coding": [
                        {
                            "system": "http://loinc.org",
                            "code": "8462-4",
                            "display": "Diastolic Blood Pressure"
                        }
                    ]
                },
                "valueQuantity": {
                    "value": 89,
                    "unit": "mmHg",
                    "system": "http://unitsofmeasure.org",
                    "code": "mm[Hg]"
                }
            }
        ]
    },
    {
        "id": "c5bf2705-4f69-4687-80f5-8a1f813e0f66",
        "status": "final",
        "category": [
            {
                "coding": [
                    {
                        "system": "http://terminology.hl7.org/CodeSystem/observation-category",
                        "code": "vital-signs",
                        "display": "Vital Signs"
                    }
                ]
            }
        ],
        "code": {
            "coding": [
                {
                    "system": "http://loinc.org",
                    "code": "85354-9",
                    "display": "Blood pressure"
                }
            ]
        },
        "subject": {
            "reference": "Patient/c5bf2705-4f69-4687-80f5-8a1f813e0f66",
            "display": "Nicholas Perez"
        },
        "effectiveDateTime": "2020-03-28T03:48:04+0000",
        "component": [
            {
                "code": {
                    "coding": [
                        {
                            "system": "http://loinc.org",
                            "code": "8480-6",
                            "display": "Systolic Blood Pressure"
                        }
                    ]
                },
                "valueQuantity": {
                    "value": 115,
                    "unit": "mmHg",
                    "system": "http://unitsofmeasure.org",
                    "code": "mm[Hg]"
                }
            },
            {
                "code": {
                    "coding": [
                        {
                            "system": "http://loinc.org",
                            "code": "8462-4",
                            "display": "Diastolic Blood Pressure"
                        }
                    ]
                },
                "valueQuantity": {
                    "value": 68,
                    "unit": "mmHg",
                    "system": "http://unitsofmeasure.org",
                    "code": "mm[Hg]"
                }
            }
        ]
    },
    {
        "id": "6d149b5a-f2aa-44a6-bc74-f316c45e6f84",
        "status": "final",
        "category": [
            {
                "coding": [
                    {
                        "system": "http://terminology.hl7.org/CodeSystem/observation-category",
                        "code": "vital-signs",
                        "display": "Vital Signs"
                    }
                ]
            }
        ],
        "code": {
            "coding": [
                {
                    "system": "http://loinc.org",
                    "code": "85354-9",
                    "display": "Blood pressure"
                }
            ]
        },
        "subject": {
            "reference": "Patient/6d149b5a-f2aa-44a6-bc74-f316c45e6f84",
            "display": "Aaron Sharp"
        },
        "effectiveDateTime": "2020-04-04T22:10:21+0000",
        "component": [
            {
                "code": {
                    "coding": [
                        {
                            "system": "http://loinc.org",
                            "code": "8480-6",
                            "display": "Systolic Blood Pressure"
                        }
                    ]
                },
                "valueQuantity": {
                    "value": 116,
                    "unit": "mmHg",
                    "system": "http://unitsofmeasure.org",
                    "code": "mm[Hg]"
                }
            },
            {
                "code": {
                    "coding": [
                        {
                            "system": "http://loinc.org",
                            "code": "8462-4",
                            "display": "Diastolic Blood Pressure"
                        }
                    ]
                },
                "valueQuantity": {
                    "value": 68,
                    "unit": "mmHg",
                    "system": "http://unitsofmeasure.org",
                    "code": "mm[Hg]"
                }
            }
        ]
    },
    {
        "id": "5d7fc1e4-c368-42b1-90ca-ffb8d4957947",
        "status": "final",
        "category": [
            {
                "coding": [
                    {
                        "system": "http://terminology.hl7.org/CodeSystem/observation-category",
                        "code": "vital-signs",
                        "display": "Vital Signs"
                    }
                ]
            }
        ],
        "code": {
            "coding": [
                {
                    "system": "http://loinc.org",
                    "code": "85354-9",
                    "display": "Blood pressure"
                }
            ]
        },
        "subject": {
            "reference": "Patient/5d7fc1e4-c368-42b1-90ca-ffb8d4957947",
            "display": "Thomas Dunn"
        },
        "effectiveDateTime": "2020-04-11T20:36:54+0000",
        "component": [
            {
                "code": {
                    "coding": [
                        {
                            "system": "http://loinc.org",
                            "code": "8480-6",
                            "display": "Systolic Blood Pressure"
                        }
                    ]
                },
                "valueQuantity": {
                    "value": 100,
                    "unit": "mmHg",
                    "system": "http://unitsofmeasure.org",
                    "code": "mm[Hg]"
                }
            },
            {
                "code": {
                    "coding": [
                        {
                            "system": "http://loinc.org",
                            "code": "8462-4",
                            "display": "Diastolic Blood Pressure"
                        }
                    ]
                },
                "valueQuantity": {
                    "value": 73,
                    "unit": "mmHg",
                    "system": "http://unitsofmeasure.org",
                    "code": "mm[Hg]"
                }
            }
        ]
    },
    {
        "id": "771c00c9-e4d3-40f2-ac23-116b25875eb6",
        "status": "final",
        "category": [
            {
                "coding": [
                    {
                        "system": "http://terminology.hl7.org/CodeSystem/observation-category",
                        "code": "vital-signs",
                        "display": "Vital Signs"
                    }
                ]
            }
        ],
        "code": {
            "coding": [
                {
                    "system": "http://loinc.org",
                    "code": "85354-9",
                    "display": "Blood pressure"
                }
            ]
        },
        "subject": {
            "reference": "Patient/771c00c9-e4d3-40f2-ac23-116b25875eb6",
            "display": "John Jones"
        },
        "effectiveDateTime": "2020-04-19T00:22:55+0000",
        "component": [
            {
                "code": {
                    "coding": [
                        {
                            "system": "http://loinc.org",
                            "code": "8480-6",
                            "display": "Systolic Blood Pressure"
                        }
                    ]
                },
                "valueQuantity": {
                    "value": 117,
                    "unit": "mmHg",
                    "system": "http://unitsofmeasure.org",
                    "code": "mm[Hg]"
                }
            },
            {
                "code": {
                    "coding": [
                        {
                            "system": "http://loinc.org",
                            "code": "8462-4",
                            "display": "Diastolic Blood Pressure"
                        }
                    ]
                },
                "valueQuantity": {
                    "value": 71,
                    "unit": "mmHg",
                    "system": "http://unitsofmeasure.org",
                    "code": "mm[Hg]"
                }
            }
        ]
    },
    {
        "id": "7a9578c9-88dc-4fc5-bbe2-6f014d5df903",
        "status": "final",
        "category": [
            {
                "coding": [
                    {
                        "system": "http://terminology.hl7.org/CodeSystem/observation-category",
                        "code": "vital-signs",
                        "display": "Vital Signs"
                    }
                ]
            }
        ],
        "code": {
            "coding": [
                {
                    "system": "http://loinc.org",
                    "code": "85354-9",
                    "display": "Blood pressure"
                }
            ]
        },
        "subject": {
            "reference": "Patient/7a9578c9-88dc-4fc5-bbe2-6f014d5df903",
            "display": "Jamie Jones"
        },
        "effectiveDateTime": "2020-04-20T13:55:55+0000",
        "component": [
            {
                "code": {
                    "coding": [
                        {
                            "system": "http://loinc.org",
                            "code": "8480-6",
                            "display": "Systolic Blood Pressure"
                        }
                    ]
                },
                "valueQuantity": {
                    "value": 96,
                    "unit": "mmHg",
                    "system": "http://unitsofmeasure.org",
                    "code": "mm[Hg]"
                }
            },
            {
                "code": {
                    "coding": [
                        {
                            "system": "http://loinc.org",
                            "code": "8462-4",
                            "display": "Diastolic Blood Pressure"
                        }
                    ]
                },
                "valueQuantity": {
                    "value": 69,
                    "unit": "mmHg",
                    "system": "http://unitsofmeasure.org",
                    "code": "mm[Hg]"
                }
            }
        ]
    },
    {
        "id": "a6474c88-ef8d-49e0-89f3-2d865bfd3a04",
        "status": "final",
        "category": [
            {
                "coding": [
                    {
                        "system": "http://terminology.hl7.org/CodeSystem/observation-category",
                        "code": "vital-signs",
                        "display": "Vital Signs"
                    }
                ]
            }
        ],
        "code": {
            "coding": [
                {
                    "system": "http://loinc.org",
                    "code": "85354-9",
                    "display": "Blood pressure"
                }
            ]
        },
        "subject": {
            "reference": "Patient/a6474c88-ef8d-49e0-89f3-2d865bfd3a04",
            "display": "Aaron Elliott"
        },
        "effectiveDateTime": "2020-04-23T14:12:10+0000",
        "component": [
            {
                "code": {
                    "coding": [
                        {
                            "system": "http://loinc.org",
                            "code": "8480-6",
                            "display": "Systolic Blood Pressure"
                        }
                    ]
                },
                "valueQuantity": {
                    "value": 111,
                    "unit": "mmHg",
                    "system": "http://unitsofmeasure.org",
                    "code": "mm[Hg]"
                }
            },
            {
                "code": {
                    "coding": [
                        {
                            "system": "http://loinc.org",
                            "code": "8462-4",
                            "display": "Diastolic Blood Pressure"
                        }
                    ]
                },
                "valueQuantity": {
                    "value": 78,
                    "unit": "mmHg",
                    "system": "http://unitsofmeasure.org",
                    "code": "mm[Hg]"
                }
            }
        ]
    },
    {
        "id": "3d8617b1-731e-438e-8b9d-29efc7f92e5a",
        "status": "final",
        "category": [
            {
                "coding": [
                    {
                        "system": "http://terminology.hl7.org/CodeSystem/observation-category",
                        "code": "vital-signs",
                        "display": "Vital Signs"
                    }
                ]
            }
        ],
        "code": {
            "coding": [
                {
                    "system": "http://loinc.org",
                    "code": "85354-9",
                    "display": "Blood pressure"
                }
            ]
        },
        "subject": {
            "reference": "Patient/3d8617b1-731e-438e-8b9d-29efc7f92e5a",
            "display": "Danielle Lewis"
        },
        "effectiveDateTime": "2020-04-28T12:43:45+0000",
        "component": [
            {
                "code": {
                    "coding": [
                        {
                            "system": "http://loinc.org",
                            "code": "8480-6",
                            "display": "Systolic Blood Pressure"
                        }
                    ]
                },
                "valueQuantity": {
                    "value": 116,
                    "unit": "mmHg",
                    "system": "http://unitsofmeasure.org",
                    "code": "mm[Hg]"
                }
            },
            {
                "code": {
                    "coding": [
                        {
                            "system": "http://loinc.org",
                            "code": "8462-4",
                            "display": "Diastolic Blood Pressure"
                        }
                    ]
                },
                "valueQuantity": {
                    "value": 72,
                    "unit": "mmHg",
                    "system": "http://unitsofmeasure.org",
                    "code": "mm[Hg]"
                }
            }
        ]
    },
    {
        "id": "9693b7b2-dcbd-4d75-a7aa-d89190810bba",
        "status": "final",
        "category": [
            {
                "coding": [
                    {
                        "system": "http://terminology.hl7.org/CodeSystem/observation-category",
                        "code": "vital-signs",
                        "display": "Vital Signs"
                    }
                ]
            }
        ],
        "code": {
            "coding": [
                {
                    "system": "http://loinc.org",
                    "code": "85354-9",
                    "display": "Blood pressure"
                }
            ]
        },
        "subject": {
            "reference": "Patient/9693b7b2-dcbd-4d75-a7aa-d89190810bba",
            "display": "Calvin Williams"
        },
        "effectiveDateTime": "2020-06-12T15:36:38+0000",
        "component": [
            {
                "code": {
                    "coding": [
                        {
                            "system": "http://loinc.org",
                            "code": "8480-6",
                            "display": "Systolic Blood Pressure"
                        }
                    ]
                },
                "valueQuantity": {
                    "value": 119,
                    "unit": "mmHg",
                    "system": "http://unitsofmeasure.org",
                    "code": "mm[Hg]"
                }
            },
            {
                "code": {
                    "coding": [
                        {
                            "system": "http://loinc.org",
                            "code": "8462-4",
                            "display": "Diastolic Blood Pressure"
                        }
                    ]
                },
                "valueQuantity": {
                    "value": 76,
                    "unit": "mmHg",
                    "system": "http://unitsofmeasure.org",
                    "code": "mm[Hg]"
                }
            }
        ]
    },
    {
        "id": "b3427435-ddd5-4dce-b06b-7893e47a69ce",
        "status": "final",
        "category": [
            {
                "coding": [
                    {
                        "system": "http://terminology.hl7.org/CodeSystem/observation-category",
                        "code": "vital-signs",
                        "display": "Vital Signs"
                    }
                ]
            }
        ],
        "code": {
            "coding": [
                {
                    "system": "http://loinc.org",
                    "code": "85354-9",
                    "display": "Blood pressure"
                }
            ]
        },
        "subject": {
            "reference": "Patient/b3427435-ddd5-4dce-b06b-7893e47a69ce",
            "display": "Jennifer Wood"
        },
        "effectiveDateTime": "2020-06-30T05:07:20+0000",
        "component": [
            {
                "code": {
                    "coding": [
                        {
                            "system": "http://loinc.org",
                            "code": "8480-6",
                            "display": "Systolic Blood Pressure"
                        }
                    ]
                },
                "valueQuantity": {
                    "value": 91,
                    "unit": "mmHg",
                    "system": "http://unitsofmeasure.org",
                    "code": "mm[Hg]"
                }
            },
            {
                "code": {
                    "coding": [
                        {
                            "system": "http://loinc.org",
                            "code": "8462-4",
                            "display": "Diastolic Blood Pressure"
                        }
                    ]
                },
                "valueQuantity": {
                    "value": 62,
                    "unit": "mmHg",
                    "system": "http://unitsofmeasure.org",
                    "code": "mm[Hg]"
                }
            }
        ]
    },
    {
        "id": "513143a0-d0dc-4d25-8c10-db51f294c880",
        "status": "final",
        "category": [
            {
                "coding": [
                    {
                        "system": "http://terminology.hl7.org/CodeSystem/observation-category",
                        "code": "vital-signs",
                        "display": "Vital Signs"
                    }
                ]
            }
        ],
        "code": {
            "coding": [
                {
                    "system": "http://loinc.org",
                    "code": "85354-9",
                    "display": "Blood pressure"
                }
            ]
        },
        "subject": {
            "reference": "Patient/513143a0-d0dc-4d25-8c10-db51f294c880",
            "display": "Carl Carpenter"
        },
        "effectiveDateTime": "2020-07-25T19:29:44+0000",
        "component": [
            {
                "code": {
                    "coding": [
                        {
                            "system": "http://loinc.org",
                            "code": "8480-6",
                            "display": "Systolic Blood Pressure"
                        }
                    ]
                },
                "valueQuantity": {
                    "value": 112,
                    "unit": "mmHg",
                    "system": "http://unitsofmeasure.org",
                    "code": "mm[Hg]"
                }
            },
            {
                "code": {
                    "coding": [
                        {
                            "system": "http://loinc.org",
                            "code": "8462-4",
                            "display": "Diastolic Blood Pressure"
                        }
                    ]
                },
                "valueQuantity": {
                    "value": 78,
                    "unit": "mmHg",
                    "system": "http://unitsofmeasure.org",
                    "code": "mm[Hg]"
                }
            }
        ]
    },
    {
        "id": "b1039ad7-010c-48ae-9dab-daaa572dc039",
        "status": "final",
        "category": [
            {
                "coding": [
                    {
                        "system": "http://terminology.hl7.org/CodeSystem/observation-category",
                        "code": "vital-signs",
                        "display": "Vital Signs"
                    }
                ]
            }
        ],
        "code": {
            "coding": [
                {
                    "system": "http://loinc.org",
                    "code": "85354-9",
                    "display": "Blood pressure"
                }
            ]
        },
        "subject": {
            "reference": "Patient/b1039ad7-010c-48ae-9dab-daaa572dc039",
            "display": "Corey Davis"
        },
        "effectiveDateTime": "2020-08-09T01:05:23+0000",
        "component": [
            {
                "code": {
                    "coding": [
                        {
                            "system": "http://loinc.org",
                            "code": "8480-6",
                            "display": "Systolic Blood Pressure"
                        }
                    ]
                },
                "valueQuantity": {
                    "value": 103,
                    "unit": "mmHg",
                    "system": "http://unitsofmeasure.org",
                    "code": "mm[Hg]"
                }
            },
            {
                "code": {
                    "coding": [
                        {
                            "system": "http://loinc.org",
                            "code": "8462-4",
                            "display": "Diastolic Blood Pressure"
                        }
                    ]
                },
                "valueQuantity": {
                    "value": 88,
                    "unit": "mmHg",
                    "system": "http://unitsofmeasure.org",
                    "code": "mm[Hg]"
                }
            }
        ]
    },
    {
        "id": "535f4cd2-78ea-49d8-801b-19ed28e4150b",
        "status": "final",
        "category": [
            {
                "coding": [
                    {
                        "system": "http://terminology.hl7.org/CodeSystem/observation-category",
                        "code": "vital-signs",
                        "display": "Vital Signs"
                    }
                ]
            }
        ],
        "code": {
            "coding": [
                {
                    "system": "http://loinc.org",
                    "code": "85354-9",
                    "display": "Blood pressure"
                }
            ]
        },
        "subject": {
            "reference": "Patient/535f4cd2-78ea-49d8-801b-19ed28e4150b",
            "display": "Michael Pearson"
        },
        "effectiveDateTime": "2020-09-14T20:04:58+0000",
        "component": [
            {
                "code": {
                    "coding": [
                        {
                            "system": "http://loinc.org",
                            "code": "8480-6",
                            "display": "Systolic Blood Pressure"
                        }
                    ]
                },
                "valueQuantity": {
                    "value": 105,
                    "unit": "mmHg",
                    "system": "http://unitsofmeasure.org",
                    "code": "mm[Hg]"
                }
            },
            {
                "code": {
                    "coding": [
                        {
                            "system": "http://loinc.org",
                            "code": "8462-4",
                            "display": "Diastolic Blood Pressure"
                        }
                    ]
                },
                "valueQuantity": {
                    "value": 64,
                    "unit": "mmHg",
                    "system": "http://unitsofmeasure.org",
                    "code": "mm[Hg]"
                }
            }
        ]
    },
    {
        "id": "21c59dc0-c3f4-4bbe-9a5a-c4db8776ee03",
        "status": "final",
        "category": [
            {
                "coding": [
                    {
                        "system": "http://terminology.hl7.org/CodeSystem/observation-category",
                        "code": "vital-signs",
                        "display": "Vital Signs"
                    }
                ]
            }
        ],
        "code": {
            "coding": [
                {
                    "system": "http://loinc.org",
                    "code": "85354-9",
                    "display": "Blood pressure"
                }
            ]
        },
        "subject": {
            "reference": "Patient/21c59dc0-c3f4-4bbe-9a5a-c4db8776ee03",
            "display": "Luke Smith"
        },
        "effectiveDateTime": "2020-11-04T12:43:09+0000",
        "component": [
            {
                "code": {
                    "coding": [
                        {
                            "system": "http://loinc.org",
                            "code": "8480-6",
                            "display": "Systolic Blood Pressure"
                        }
                    ]
                },
                "valueQuantity": {
                    "value": 110,
                    "unit": "mmHg",
                    "system": "http://unitsofmeasure.org",
                    "code": "mm[Hg]"
                }
            },
            {
                "code": {
                    "coding": [
                        {
                            "system": "http://loinc.org",
                            "code": "8462-4",
                            "display": "Diastolic Blood Pressure"
                        }
                    ]
                },
                "valueQuantity": {
                    "value": 78,
                    "unit": "mmHg",
                    "system": "http://unitsofmeasure.org",
                    "code": "mm[Hg]"
                }
            }
        ]
    },
    {
        "id": "7f3e69b3-e49f-466b-89ab-08abc127411b",
        "status": "final",
        "category": [
            {
                "coding": [
                    {
                        "system": "http://terminology.hl7.org/CodeSystem/observation-category",
                        "code": "vital-signs",
                        "display": "Vital Signs"
                    }
                ]
            }
        ],
        "code": {
            "coding": [
                {
                    "system": "http://loinc.org",
                    "code": "85354-9",
                    "display": "Blood pressure"
                }
            ]
        },
        "subject": {
            "reference": "Patient/7f3e69b3-e49f-466b-89ab-08abc127411b",
            "display": "Kylie Rojas"
        },
        "effectiveDateTime": "2020-11-11T18:08:43+0000",
        "component": [
            {
                "code": {
                    "coding": [
                        {
                            "system": "http://loinc.org",
                            "code": "8480-6",
                            "display": "Systolic Blood Pressure"
                        }
                    ]
                },
                "valueQuantity": {
                    "value": 95,
                    "unit": "mmHg",
                    "system": "http://unitsofmeasure.org",
                    "code": "mm[Hg]"
                }
            },
            {
                "code": {
                    "coding": [
                        {
                            "system": "http://loinc.org",
                            "code": "8462-4",
                            "display": "Diastolic Blood Pressure"
                        }
                    ]
                },
                "valueQuantity": {
                    "value": 72,
                    "unit": "mmHg",
                    "system": "http://unitsofmeasure.org",
                    "code": "mm[Hg]"
                }
            }
        ]
    },
    {
        "id": "35dc9656-b57c-4b5a-8cb8-a1de27030dba",
        "status": "final",
        "category": [
            {
                "coding": [
                    {
                        "system": "http://terminology.hl7.org/CodeSystem/observation-category",
                        "code": "vital-signs",
                        "display": "Vital Signs"
                    }
                ]
            }
        ],
        "code": {
            "coding": [
                {
                    "system": "http://loinc.org",
                    "code": "85354-9",
                    "display": "Blood pressure"
                }
            ]
        },
        "subject": {
            "reference": "Patient/35dc9656-b57c-4b5a-8cb8-a1de27030dba",
            "display": "Ashley Lin"
        },
        "effectiveDateTime": "2020-11-15T01:19:42+0000",
        "component": [
            {
                "code": {
                    "coding": [
                        {
                            "system": "http://loinc.org",
                            "code": "8480-6",
                            "display": "Systolic Blood Pressure"
                        }
                    ]
                },
                "valueQuantity": {
                    "value": 97,
                    "unit": "mmHg",
                    "system": "http://unitsofmeasure.org",
                    "code": "mm[Hg]"
                }
            },
            {
                "code": {
                    "coding": [
                        {
                            "system": "http://loinc.org",
                            "code": "8462-4",
                            "display": "Diastolic Blood Pressure"
                        }
                    ]
                },
                "valueQuantity": {
                    "value": 72,
                    "unit": "mmHg",
                    "system": "http://unitsofmeasure.org",
                    "code": "mm[Hg]"
                }
            }
        ]
    },
    {
        "id": "986946a3-8376-4821-a202-5567a1910746",
        "status": "final",
        "category": [
            {
                "coding": [
                    {
                        "system": "http://terminology.hl7.org/CodeSystem/observation-category",
                        "code": "vital-signs",
                        "display": "Vital Signs"
                    }
                ]
            }
        ],
        "code": {
            "coding": [
                {
                    "system": "http://loinc.org",
                    "code": "85354-9",
                    "display": "Blood pressure"
                }
            ]
        },
        "subject": {
            "reference": "Patient/986946a3-8376-4821-a202-5567a1910746",
            "display": "Amber Martinez"
        },
        "effectiveDateTime": "2020-12-12T04:33:14+0000",
        "component": [
            {
                "code": {
                    "coding": [
                        {
                            "system": "http://loinc.org",
                            "code": "8480-6",
                            "display": "Systolic Blood Pressure"
                        }
                    ]
                },
                "valueQuantity": {
                    "value": 100,
                    "unit": "mmHg",
                    "system": "http://unitsofmeasure.org",
                    "code": "mm[Hg]"
                }
            },
            {
                "code": {
                    "coding": [
                        {
                            "system": "http://loinc.org",
                            "code": "8462-4",
                            "display": "Diastolic Blood Pressure"
                        }
                    ]
                },
                "valueQuantity": {
                    "value": 60,
                    "unit": "mmHg",
                    "system": "http://unitsofmeasure.org",
                    "code": "mm[Hg]"
                }
            }
        ]
    },
    {
        "id": "66d10f22-21c6-46d2-ba57-5536602e0b5b",
        "status": "final",
        "category": [
            {
                "coding": [
                    {
                        "system": "http://terminology.hl7.org/CodeSystem/observation-category",
                        "code": "vital-signs",
                        "display": "Vital Signs"
                    }
                ]
            }
        ],
        "code": {
            "coding": [
                {
                    "system": "http://loinc.org",
                    "code": "85354-9",
                    "display": "Blood pressure"
                }
            ]
        },
        "subject": {
            "reference": "Patient/66d10f22-21c6-46d2-ba57-5536602e0b5b",
            "display": "Jason Richardson"
        },
        "effectiveDateTime": "2020-12-18T12:32:36+0000",
        "component": [
            {
                "code": {
                    "coding": [
                        {
                            "system": "http://loinc.org",
                            "code": "8480-6",
                            "display": "Systolic Blood Pressure"
                        }
                    ]
                },
                "valueQuantity": {
                    "value": 108,
                    "unit": "mmHg",
                    "system": "http://unitsofmeasure.org",
                    "code": "mm[Hg]"
                }
            },
            {
                "code": {
                    "coding": [
                        {
                            "system": "http://loinc.org",
                            "code": "8462-4",
                            "display": "Diastolic Blood Pressure"
                        }
                    ]
                },
                "valueQuantity": {
                    "value": 73,
                    "unit": "mmHg",
                    "system": "http://unitsofmeasure.org",
                    "code": "mm[Hg]"
                }
            }
        ]
    },
    {
        "id": "fdc3cbf0-0e7a-47d8-9044-8147dab5ad9f",
        "status": "final",
        "category": [
            {
                "coding": [
                    {
                        "system": "http://terminology.hl7.org/CodeSystem/observation-category",
                        "code": "vital-signs",
                        "display": "Vital Signs"
                    }
                ]
            }
        ],
        "code": {
            "coding": [
                {
                    "system": "http://loinc.org",
                    "code": "85354-9",
                    "display": "Blood pressure"
                }
            ]
        },
        "subject": {
            "reference": "Patient/fdc3cbf0-0e7a-47d8-9044-8147dab5ad9f",
            "display": "Michael Robinson"
        },
        "effectiveDateTime": "2020-12-22T05:48:38+0000",
        "component": [
            {
                "code": {
                    "coding": [
                        {
                            "system": "http://loinc.org",
                            "code": "8480-6",
                            "display": "Systolic Blood Pressure"
                        }
                    ]
                },
                "valueQuantity": {
                    "value": 92,
                    "unit": "mmHg",
                    "system": "http://unitsofmeasure.org",
                    "code": "mm[Hg]"
                }
            },
            {
                "code": {
                    "coding": [
                        {
                            "system": "http://loinc.org",
                            "code": "8462-4",
                            "display": "Diastolic Blood Pressure"
                        }
                    ]
                },
                "valueQuantity": {
                    "value": 77,
                    "unit": "mmHg",
                    "system": "http://unitsofmeasure.org",
                    "code": "mm[Hg]"
                }
            }
        ]
    },
    {
        "id": "b0a9de02-e3a4-4103-9cd0-b3c59c2bc24c",
        "status": "final",
        "category": [
            {
                "coding": [
                    {
                        "system": "http://terminology.hl7.org/CodeSystem/observation-category",
                        "code": "vital-signs",
                        "display": "Vital Signs"
                    }
                ]
            }
        ],
        "code": {
            "coding": [
                {
                    "system": "http://loinc.org",
                    "code": "85354-9",
                    "display": "Blood pressure"
                }
            ]
        },
        "subject": {
            "reference": "Patient/b0a9de02-e3a4-4103-9cd0-b3c59c2bc24c",
            "display": "Kelly Savage"
        },
        "effectiveDateTime": "2020-12-26T10:28:52+0000",
        "component": [
            {
                "code": {
                    "coding": [
                        {
                            "system": "http://loinc.org",
                            "code": "8480-6",
                            "display": "Systolic Blood Pressure"
                        }
                    ]
                },
                "valueQuantity": {
                    "value": 100,
                    "unit": "mmHg",
                    "system": "http://unitsofmeasure.org",
                    "code": "mm[Hg]"
                }
            },
            {
                "code": {
                    "coding": [
                        {
                            "system": "http://loinc.org",
                            "code": "8462-4",
                            "display": "Diastolic Blood Pressure"
                        }
                    ]
                },
                "valueQuantity": {
                    "value": 88,
                    "unit": "mmHg",
                    "system": "http://unitsofmeasure.org",
                    "code": "mm[Hg]"
                }
            }
        ]
    },
    {
        "id": "e70a2cf3-ab7e-46a0-bc6c-fa2ab50d7cb4",
        "status": "final",
        "category": [
            {
                "coding": [
                    {
                        "system": "http://terminology.hl7.org/CodeSystem/observation-category",
                        "code": "vital-signs",
                        "display": "Vital Signs"
                    }
                ]
            }
        ],
        "code": {
            "coding": [
                {
                    "system": "http://loinc.org",
                    "code": "85354-9",
                    "display": "Blood pressure"
                }
            ]
        },
        "subject": {
            "reference": "Patient/e70a2cf3-ab7e-46a0-bc6c-fa2ab50d7cb4",
            "display": "Olivia Rios"
        },
        "effectiveDateTime": "2020-12-30T16:58:27+0000",
        "component": [
            {
                "code": {
                    "coding": [
                        {
                            "system": "http://loinc.org",
                            "code": "8480-6",
                            "display": "Systolic Blood Pressure"
                        }
                    ]
                },
                "valueQuantity": {
                    "value": 114,
                    "unit": "mmHg",
                    "system": "http://unitsofmeasure.org",
                    "code": "mm[Hg]"
                }
            },
            {
                "code": {
                    "coding": [
                        {
                            "system": "http://loinc.org",
                            "code": "8462-4",
                            "display": "Diastolic Blood Pressure"
                        }
                    ]
                },
                "valueQuantity": {
                    "value": 64,
                    "unit": "mmHg",
                    "system": "http://unitsofmeasure.org",
                    "code": "mm[Hg]"
                }
            }
        ]
    },
    {
        "id": "c1ee4b42-cfb8-4fe6-b277-3152518f7dc5",
        "status": "final",
        "category": [
            {
                "coding": [
                    {
                        "system": "http://terminology.hl7.org/CodeSystem/observation-category",
                        "code": "vital-signs",
                        "display": "Vital Signs"
                    }
                ]
            }
        ],
        "code": {
            "coding": [
                {
                    "system": "http://loinc.org",
                    "code": "85354-9",
                    "display": "Blood pressure"
                }
            ]
        },
        "subject": {
            "reference": "Patient/c1ee4b42-cfb8-4fe6-b277-3152518f7dc5",
            "display": "Allen Fitzgerald"
        },
        "effectiveDateTime": "2021-01-14T13:11:57+0000",
        "component": [
            {
                "code": {
                    "coding": [
                        {
                            "system": "http://loinc.org",
                            "code": "8480-6",
                            "display": "Systolic Blood Pressure"
                        }
                    ]
                },
                "valueQuantity": {
                    "value": 113,
                    "unit": "mmHg",
                    "system": "http://unitsofmeasure.org",
                    "code": "mm[Hg]"
                }
            },
            {
                "code": {
                    "coding": [
                        {
                            "system": "http://loinc.org",
                            "code": "8462-4",
                            "display": "Diastolic Blood Pressure"
                        }
                    ]
                },
                "valueQuantity": {
                    "value": 84,
                    "unit": "mmHg",
                    "system": "http://unitsofmeasure.org",
                    "code": "mm[Hg]"
                }
            }
        ]
    }
]