[
    {
        "resourceType": "Observation",
        "id": "901182a7-dcc7-4685-b115-3a2b58eddc71",
        "status": "final",
        "category": [
            {
                "coding": [
                    {
                        "system": "http://terminology.hl7.org/CodeSystem/observation-category",
                        "code": "vital-signs",
                        "display": "Vital Signs"
                    }
                ]
            }
        ],
        "code": {
            "coding": [
                {
                    "system": "http://loinc.org",
                    "code": "85354-9",
                    "display": "Blood pressure"
                }
            ]
        },
        "subject": {
            "reference": "Patient/901182a7-dcc7-4685-b115-3a2b58eddc71",
            "display": "James Perez"
        },
        "effectiveDateTime": "2021-06-08",
        "component": [
            {
                "code": {
                    "coding": [
                        {
                            "system": "http://loinc.org",
                            "code": "8480-6",
                            "display": "Systolic Blood Pressure"
                        }
                    ]
                },
                "valueQuantity": {
                    "value": 104.0,
                    "unit": "mmHg",
                    "system": "http://unitsofmeasure.org",
                    "code": "mm[Hg]"
                }
            },
            {
                "code": {
                    "coding": [
                        {
                            "system": "http://loinc.org",
                            "code": "8462-4",
                            "display": "Diastolic Blood Pressure"
                        }
                    ]
                },
                "valueQuantity": {
                    "value": 73.0,
                    "unit": "mmHg",
                    "system": "http://unitsofmeasure.org",
                    "code": "mm[Hg]"
                }
            }
        ]
    },
    {
        "resourceType": "Observation",
        "id": "9eba0f78-68ef-4188-9c58-32beace3f1e8",
        "status": "final",
        "category": [
            {
                "coding": [
                    {
                        "system": "http://terminology.hl7.org/CodeSystem/observation-category",
                        "code": "vital-signs",
                        "display": "Vital Signs"
                    }
                ]
            }
        ],
        "code": {
            "coding": [
                {
                    "system": "http://loinc.org",
                    "code": "85354-9",
                    "display": "Blood pressure"
                }
            ]
        },
        "subject": {
            "reference": "Patient/9eba0f78-68ef-4188-9c58-32beace3f1e8",
            "display": "Donna Kelley"
        },
        "effectiveDateTime": "2023-01-05",
        "component": [
            {
                "code": {
                    "coding": [
                        {
                            "system": "http://loinc.org",
                            "code": "8480-6",
                            "display": "Systolic Blood Pressure"
                        }
                    ]
                },
                "valueQuantity": {
                    "value": 114.0,
                    "unit": "mmHg",
                    "system": "http://unitsofmeasure.org",
                    "code": "mm[Hg]"
                }
            },
            {
                "code": {
                    "coding": [
                        {
                            "system": "http://loinc.org",
                            "code": "8462-4",
                            "display": "Diastolic Blood Pressure"
                        }
                    ]
                },
                "valueQuantity": {
                    "value": 88.0,
                    "unit": "mmHg",
                    "system": "http://unitsofmeasure.org",
                    "code": "mm[Hg]"
                }
            }
        ]
    },
    {
        "resourceType": "Observation",
        "id": "82f3d346-0cb4-408b-87e5-c6fa135a0863",
        "status": "final",
        "category": [
            {
                "coding": [
                    {
                        "system": "http://terminology.hl7.org/CodeSystem/observation-category",
                        "code": "vital-signs",
                        "display": "Vital Signs"
                    }
                ]
            }
        ],
        "code": {
            "coding": [
                {
                    "system": "http://loinc.org",
                    "code": "85354-9",
                    "display": "Blood pressure"
                }
            ]
        },
        "subject": {
            "reference": "Patient/82f3d346-0cb4-408b-87e5-c6fa135a0863",
            "display": "Bradley Walker"
        },
        "effectiveDateTime": "2021-12-29",
        "component": [
            {
                "code": {
                    "coding": [
                        {
                            "system": "http://loinc.org",
                            "code": "8480-6",
                            "display": "Systolic Blood Pressure"
                        }
                    ]
                },
                "valueQuantity": {
                    "value": 114.0,
                    "unit": "mmHg",
                    "system": "http://unitsofmeasure.org",
                    "code": "mm[Hg]"
                }
            },
            {
                "code": {
                    "coding": [
                        {
                            "system": "http://loinc.org",
                            "code": "8462-4",
                            "display": "Diastolic Blood Pressure"
                        }
                    ]
                },
                "valueQuantity": {
                    "value": 61.0,
                    "unit": "mmHg",
                    "system": "http://unitsofmeasure.org",
                    "code": "mm[Hg]"
                }
            }
        ]
    },
    {
        "resourceType": "Observation",
        "id": "fd3bd16c-7b50-40ce-8a07-6d36146fdd4b",
        "status": "final",
        "category": [
            {
                "coding": [
                    {
                        "system": "http://terminology.hl7.org/CodeSystem/observation-category",
                        "code": "vital-signs",
                        "display": "Vital Signs"
                    }
                ]
            }
        ],
        "code": {
            "coding": [
                {
                    "system": "http://loinc.org",
                    "code": "85354-9",
                    "display": "Blood pressure"
                }
            ]
        },
        "subject": {
            "reference": "Patient/fd3bd16c-7b50-40ce-8a07-6d36146fdd4b",
            "display": "James Zuniga"
        },
        "effectiveDateTime": "2022-10-29",
        "component": [
            {
                "code": {
                    "coding": [
                        {
                            "system": "http://loinc.org",
                            "code": "8480-6",
                            "display": "Systolic Blood Pressure"
                        }
                    ]
                },
                "valueQuantity": {
                    "value": 136.0,
                    "unit": "mmHg",
                    "system": "http://unitsofmeasure.org",
                    "code": "mm[Hg]"
                }
            },
            {
                "code": {
                    "coding": [
                        {
                            "system": "http://loinc.org",
                            "code": "8462-4",
                            "display": "Diastolic Blood Pressure"
                        }
                    ]
                },
                "valueQuantity": {
                    "value": 84.0,
                    "unit": "mmHg",
                    "system": "http://unitsofmeasure.org",
                    "code": "mm[Hg]"
                }
            }
        ]
    },
    {
        "resourceType": "Observation",
        "id": "568cdde6-863b-415c-a9cc-90107fc03a1a",
        "status": "final",
        "category": [
            {
                "coding": [
                    {
                        "system": "http://terminology.hl7.org/CodeSystem/observation-category",
                        "code": "vital-signs",
                        "display": "Vital Signs"
                    }
                ]
            }
        ],
        "code": {
            "coding": [
                {
                    "system": "http://loinc.org",
                    "code": "85354-9",
                    "display": "Blood pressure"
                }
            ]
        },
        "subject": {
            "reference": "Patient/568cdde6-863b-415c-a9cc-90107fc03a1a",
            "display": "Felicia Yang"
        },
        "effectiveDateTime": "2020-02-02",
        "component": [
            {
                "code": {
                    "coding": [
                        {
                            "system": "http://loinc.org",
                            "code": "8480-6",
                            "display": "Systolic Blood Pressure"
                        }
                    ]
                },
                "valueQuantity": {
                    "value": 113.0,
                    "unit": "mmHg",
                    "system": "http://unitsofmeasure.org",
                    "code": "mm[Hg]"
                }
            },
            {
                "code": {
                    "coding": [
                        {
                            "system": "http://loinc.org",
                            "code": "8462-4",
                            "display": "Diastolic Blood Pressure"
                        }
                    ]
                },
                "valueQuantity": {
                    "value": 66.0,
                    "unit": "mmHg",
                    "system": "http://unitsofmeasure.org",
                    "code": "mm[Hg]"
                }
            }
        ]
    },
    {
        "resourceType": "Observation",
        "id": "d9fd318a-5c24-4d28-bf18-f1794e05618a",
        "status": "final",
        "category": [
            {
                "coding": [
                    {
                        "system": "http://terminology.hl7.org/CodeSystem/observation-category",
                        "code": "vital-signs",
                        "display": "Vital Signs"
                    }
                ]
            }
        ],
        "code": {
            "coding": [
                {
                    "system": "http://loinc.org",
                    "code": "85354-9",
                    "display": "Blood pressure"
                }
            ]
        },
        "subject": {
            "reference": "Patient/d9fd318a-5c24-4d28-bf18-f1794e05618a",
            "display": "Bianca Williams"
        },
        "effectiveDateTime": "2024-06-29",
        "component": [
            {
                "code": {
                    "coding": [
                        {
                            "system": "http://loinc.org",
                            "code": "8480-6",
                            "display": "Systolic Blood Pressure"
                        }
                    ]
                },
                "valueQuantity": {
                    "value": 100.0,
                    "unit": "mmHg",
                    "system": "http://unitsofmeasure.org",
                    "code": "mm[Hg]"
                }
            },
            {
                "code": {
                    "coding": [
                        {
                            "system": "http://loinc.org",
                            "code": "8462-4",
                            "display": "Diastolic Blood Pressure"
                        }
                    ]
                },
                "valueQuantity": {
                    "value": 77.0,
                    "unit": "mmHg",
                    "system": "http://unitsofmeasure.org",
                    "code": "mm[Hg]"
                }
            }
        ]
    },
    {
        "resourceType": "Observation",
        "id": "63b8a70b-4354-46a1-9395-330f18ced2eb",
        "status": "final",
        "category": [
            {
                "coding": [
                    {
                        "system": "http://terminology.hl7.org/CodeSystem/observation-category",
                        "code": "vital-signs",
                        "display": "Vital Signs"
                    }
                ]
            }
        ],
        "code": {
            "coding": [
                {
                    "system": "http://loinc.org",
                    "code": "85354-9",
                    "display": "Blood pressure"
                }
            ]
        },
        "subject": {
            "reference": "Patient/63b8a70b-4354-46a1-9395-330f18ced2eb",
            "display": "Brandi Jackson"
        },
        "effectiveDateTime": "2020-09-13",
        "component": [
            {
                "code": {
                    "coding": [
                        {
                            "system": "http://loinc.org",
                            "code": "8480-6",
                            "display": "Systolic Blood Pressure"
                        }
                    ]
                },
                "valueQuantity": {
                    "value": 97.0,
                    "unit": "mmHg",
                    "system": "http://unitsofmeasure.org",
                    "code": "mm[Hg]"
                }
            },
            {
                "code": {
                    "coding": [
                        {
                            "system": "http://loinc.org",
                            "code": "8462-4",
                            "display": "Diastolic Blood Pressure"
                        }
                    ]
                },
                "valueQuantity": {
                    "value": 63.0,
                    "unit": "mmHg",
                    "system": "http://unitsofmeasure.org",
                    "code": "mm[Hg]"
                }
            }
        ]
    },
    {
        "resourceType": "Observation",
        "id": "1b5dbce4-ad6d-44d6-95bb-0fe64d4cad4e",
        "status": "final",
        "category": [
            {
                "coding": [
                    {
                        "system": "http://terminology.hl7.org/CodeSystem/observation-category",
                        "code": "vital-signs",
                        "display": "Vital Signs"
                    }
                ]
            }
        ],
        "code": {
            "coding": [
                {
                    "system": "http://loinc.org",
                    "code": "85354-9",
                    "display": "Blood pressure"
                }
            ]
        },
        "subject": {
            "reference": "Patient/1b5dbce4-ad6d-44d6-95bb-0fe64d4cad4e",
            "display": "Juan Holmes"
        },
        "effectiveDateTime": "2023-08-11",
        "component": [
            {
                "code": {
                    "coding": [
                        {
                            "system": "http://loinc.org",
                            "code": "8480-6",
                            "display": "Systolic Blood Pressure"
                        }
                    ]
                },
                "valueQuantity": {
                    "value": 132.0,
                    "unit": "mmHg",
                    "system": "http://unitsofmeasure.org",
                    "code": "mm[Hg]"
                }
            },
            {
                "code": {
                    "coding": [
                        {
                            "system": "http://loinc.org",
                            "code": "8462-4",
                            "display": "Diastolic Blood Pressure"
                        }
                    ]
                },
                "valueQuantity": {
                    "value": 87.0,
                    "unit": "mmHg",
                    "system": "http://unitsofmeasure.org",
                    "code": "mm[Hg]"
                }
            }
        ]
    },
    {
        "resourceType": "Observation",
        "id": "3d49a292-d399-4298-b019-8af2d5b1466d",
        "status": "final",
        "category": [
            {
                "coding": [
                    {
                        "system": "http://terminology.hl7.org/CodeSystem/observation-category",
                        "code": "vital-signs",
                        "display": "Vital Signs"
                    }
                ]
            }
        ],
        "code": {
            "coding": [
                {
                    "system": "http://loinc.org",
                    "code": "85354-9",
                    "display": "Blood pressure"
                }
            ]
        },
        "subject": {
            "reference": "Patient/3d49a292-d399-4298-b019-8af2d5b1466d",
            "display": "Wendy Fernandez"
        },
        "effectiveDateTime": "2024-05-17",
        "component": [
            {
                "code": {
                    "coding": [
                        {
                            "system": "http://loinc.org",
                            "code": "8480-6",
                            "display": "Systolic Blood Pressure"
                        }
                    ]
                },
                "valueQuantity": {
                    "value": 92.0,
                    "unit": "mmHg",
                    "system": "http://unitsofmeasure.org",
                    "code": "mm[Hg]"
                }
            },
            {
                "code": {
                    "coding": [
                        {
                            "system": "http://loinc.org",
                            "code": "8462-4",
                            "display": "Diastolic Blood Pressure"
                        }
                    ]
                },
                "valueQuantity": {
                    "value": 86.0,
                    "unit": "mmHg",
                    "system": "http://unitsofmeasure.org",
                    "code": "mm[Hg]"
                }
            }
        ]
    },
    {
        "resourceType": "Observation",
        "id": "1dc25808-92fc-487d-9384-f3c8d1f0182f",
        "status": "final",
        "category": [
            {
                "coding": [
                    {
                        "system": "http://terminology.hl7.org/CodeSystem/observation-category",
                        "code": "vital-signs",
                        "display": "Vital Signs"
                    }
                ]
            }
        ],
        "code": {
            "coding": [
                {
                    "system": "http://loinc.org",
                    "code": "85354-9",
                    "display": "Blood pressure"
                }
            ]
        },
        "subject": {
            "reference": "Patient/1dc25808-92fc-487d-9384-f3c8d1f0182f",
            "display": "Michelle Livingston"
        },
        "effectiveDateTime": "2022-07-30",
        "component": [
            {
                "code": {
                    "coding": [
                        {
                            "system": "http://loinc.org",
                            "code": "8480-6",
                            "display": "Systolic Blood Pressure"
                        }
                    ]
                },
                "valueQuantity": {
                    "value": 94.0,
                    "unit": "mmHg",
                    "system": "http://unitsofmeasure.org",
                    "code": "mm[Hg]"
                }
            },
            {
                "code": {
                    "coding": [
                        {
                            "system": "http://loinc.org",
                            "code": "8462-4",
                            "display": "Diastolic Blood Pressure"
                        }
                    ]
                },
                "valueQuantity": {
                    "value": 87.0,
                    "unit": "mmHg",
                    "system": "http://unitsofmeasure.org",
                    "code": "mm[Hg]"
                }
            }
        ]
    },
    {
        "resourceType": "Observation",
        "id": "dafd0a67-3588-43df-b949-a8a9857877ea",
        "status": "final",
        "category": [
            {
                "coding": [
                    {
                        "system": "http://terminology.hl7.org/CodeSystem/observation-category",
                        "code": "vital-signs",
                        "display": "Vital Signs"
                    }
                ]
            }
        ],
        "code": {
            "coding": [
                {
                    "system": "http://loinc.org",
                    "code": "85354-9",
                    "display": "Blood pressure"
                }
            ]
        },
        "subject": {
            "reference": "Patient/dafd0a67-3588-43df-b949-a8a9857877ea",
            "display": "Stephen Johnson"
        },
        "effectiveDateTime": "2020-12-03",
        "component": [
            {
                "code": {
                    "coding": [
                        {
                            "system": "http://loinc.org",
                            "code": "8480-6",
                            "display": "Systolic Blood Pressure"
                        }
                    ]
                },
                "valueQuantity": {
                    "value": 114.0,
                    "unit": "mmHg",
                    "system": "http://unitsofmeasure.org",
                    "code": "mm[Hg]"
                }
            },
            {
                "code": {
                    "coding": [
                        {
                            "system": "http://loinc.org",
                            "code": "8462-4",
                            "display": "Diastolic Blood Pressure"
                        }
                    ]
                },
                "valueQuantity": {
                    "value": 61.0,
                    "unit": "mmHg",
                    "system": "http://unitsofmeasure.org",
                    "code": "mm[Hg]"
                }
            }
        ]
    },
    {
        "resourceType": "Observation",
        "id": "a857c611-800d-44df-b394-68ee9c226d4c",
        "status": "final",
        "category": [
            {
                "coding": [
                    {
                        "system": "http://terminology.hl7.org/CodeSystem/observation-category",
                        "code": "vital-signs",
                        "display": "Vital Signs"
                    }
                ]
            }
        ],
        "code": {
            "coding": [
                {
                    "system": "http://loinc.org",
                    "code": "85354-9",
                    "display": "Blood pressure"
                }
            ]
        },
        "subject": {
            "reference": "Patient/a857c611-800d-44df-b394-68ee9c226d4c",
            "display": "Michael Charles"
        },
        "effectiveDateTime": "2020-11-02",
        "component": [
            {
                "code": {
                    "coding": [
                        {
                            "system": "http://loinc.org",
                            "code": "8480-6",
                            "display": "Systolic Blood Pressure"
                        }
                    ]
                },
                "valueQuantity": {
                    "value": 119.0,
                    "unit": "mmHg",
                    "system": "http://unitsofmeasure.org",
                    "code": "mm[Hg]"
                }
            },
            {
                "code": {
                    "coding": [
                        {
                            "system": "http://loinc.org",
                            "code": "8462-4",
                            "display": "Diastolic Blood Pressure"
                        }
                    ]
                },
                "valueQuantity": {
                    "value": 68.0,
                    "unit": "mmHg",
                    "system": "http://unitsofmeasure.org",
                    "code": "mm[Hg]"
                }
            }
        ]
    },
    {
        "resourceType": "Observation",
        "id": "bf20c680-c370-45ae-b6eb-cb5bdc729b96",
        "status": "final",
        "category": [
            {
                "coding": [
                    {
                        "system": "http://terminology.hl7.org/CodeSystem/observation-category",
                        "code": "vital-signs",
                        "display": "Vital Signs"
                    }
                ]
            }
        ],
        "code": {
            "coding": [
                {
                    "system": "http://loinc.org",
                    "code": "85354-9",
                    "display": "Blood pressure"
                }
            ]
        },
        "subject": {
            "reference": "Patient/bf20c680-c370-45ae-b6eb-cb5bdc729b96",
            "display": "Jonathan Lewis"
        },
        "effectiveDateTime": "2023-07-23",
        "component": [
            {
                "code": {
                    "coding": [
                        {
                            "system": "http://loinc.org",
                            "code": "8480-6",
                            "display": "Systolic Blood Pressure"
                        }
                    ]
                },
                "valueQuantity": {
                    "value": 126.0,
                    "unit": "mmHg",
                    "system": "http://unitsofmeasure.org",
                    "code": "mm[Hg]"
                }
            },
            {
                "code": {
                    "coding": [
                        {
                            "system": "http://loinc.org",
                            "code": "8462-4",
                            "display": "Diastolic Blood Pressure"
                        }
                    ]
                },
                "valueQuantity": {
                    "value": 87.0,
                    "unit": "mmHg",
                    "system": "http://unitsofmeasure.org",
                    "code": "mm[Hg]"
                }
            }
        ]
    },
    {
        "resourceType": "Observation",
        "id": "95312795-f1a2-4737-a90c-da65d973188b",
        "status": "final",
        "category": [
            {
                "coding": [
                    {
                        "system": "http://terminology.hl7.org/CodeSystem/observation-category",
                        "code": "vital-signs",
                        "display": "Vital Signs"
                    }
                ]
            }
        ],
        "code": {
            "coding": [
                {
                    "system": "http://loinc.org",
                    "code": "85354-9",
                    "display": "Blood pressure"
                }
            ]
        },
        "subject": {
            "reference": "Patient/95312795-f1a2-4737-a90c-da65d973188b",
            "display": "Jennifer Butler"
        },
        "effectiveDateTime": "2021-02-27",
        "component": [
            {
                "code": {
                    "coding": [
                        {
                            "system": "http://loinc.org",
                            "code": "8480-6",
                            "display": "Systolic Blood Pressure"
                        }
                    ]
                },
                "valueQuantity": {
                    "value": 105.0,
                    "unit": "mmHg",
                    "system": "http://unitsofmeasure.org",
                    "code": "mm[Hg]"
                }
            },
            {
                "code": {
                    "coding": [
                        {
                            "system": "http://loinc.org",
                            "code": "8462-4",
                            "display": "Diastolic Blood Pressure"
                        }
                    ]
                },
                "valueQuantity": {
                    "value": 70.0,
                    "unit": "mmHg",
                    "system": "http://unitsofmeasure.org",
                    "code": "mm[Hg]"
                }
            }
        ]
    },
    {
        "resourceType": "Observation",
        "id": "30faf49b-cebb-428d-90d7-041ae2c91522",
        "status": "final",
        "category": [
            {
                "coding": [
                    {
                        "system": "http://terminology.hl7.org/CodeSystem/observation-category",
                        "code": "vital-signs",
                        "display": "Vital Signs"
                    }
                ]
            }
        ],
        "code": {
            "coding": [
                {
                    "system": "http://loinc.org",
                    "code": "85354-9",
                    "display": "Blood pressure"
                }
            ]
        },
        "subject": {
            "reference": "Patient/30faf49b-cebb-428d-90d7-041ae2c91522",
            "display": "Sophia Stewart"
        },
        "effectiveDateTime": "2023-08-05",
        "component": [
            {
                "code": {
                    "coding": [
                        {
                            "system": "http://loinc.org",
                            "code": "8480-6",
                            "display": "Systolic Blood Pressure"
                        }
                    ]
                },
                "valueQuantity": {
                    "value": 96.0,
                    "unit": "mmHg",
                    "system": "http://unitsofmeasure.org",
                    "code": "mm[Hg]"
                }
            },
            {
                "code": {
                    "coding": [
                        {
                            "system": "http://loinc.org",
                            "code": "8462-4",
                            "display": "Diastolic Blood Pressure"
                        }
                    ]
                },
                "valueQuantity": {
                    "value": 68.0,
                    "unit": "mmHg",
                    "system": "http://unitsofmeasure.org",
                    "code": "mm[Hg]"
                }
            }
        ]
    },
    {
        "resourceType": "Observation",
        "id": "4d4099ba-dd70-4d64-b0a7-2c3459ebb888",
        "status": "final",
        "category": [
            {
                "coding": [
                    {
                        "system": "http://terminology.hl7.org/CodeSystem/observation-category",
                        "code": "vital-signs",
                        "display": "Vital Signs"
                    }
                ]
            }
        ],
        "code": {
            "coding": [
                {
                    "system": "http://loinc.org",
                    "code": "85354-9",
                    "display": "Blood pressure"
                }
            ]
        },
        "subject": {
            "reference": "Patient/4d4099ba-dd70-4d64-b0a7-2c3459ebb888",
            "display": "Heather Gonzalez"
        },
        "effectiveDateTime": "2024-03-27",
        "component": [
            {
                "code": {
                    "coding": [
                        {
                            "system": "http://loinc.org",
                            "code": "8480-6",
                            "display": "Systolic Blood Pressure"
                        }
                    ]
                },
                "valueQuantity": {
                    "value": 132.0,
                    "unit": "mmHg",
                    "system": "http://unitsofmeasure.org",
                    "code": "mm[Hg]"
                }
            },
            {
                "code": {
                    "coding": [
                        {
                            "system": "http://loinc.org",
                            "code": "8462-4",
                            "display": "Diastolic Blood Pressure"
                        }
                    ]
                },
                "valueQuantity": {
                    "value": 81.0,
                    "unit": "mmHg",
                    "system": "http://unitsofmeasure.org",
                    "code": "mm[Hg]"
                }
            }
        ]
    },
    {
        "resourceType": "Observation",
        "id": "b9923677-8cd8-4e38-967b-862834762220",
        "status": "final",
        "category": [
            {
                "coding": [
                    {
                        "system": "http://terminology.hl7.org/CodeSystem/observation-category",
                        "code": "vital-signs",
                        "display": "Vital Signs"
                    }
                ]
            }
        ],
        "code": {
            "coding": [
                {
                    "system": "http://loinc.org",
                    "code": "85354-9",
                    "display": "Blood pressure"
                }
            ]
        },
        "subject": {
            "reference": "Patient/b9923677-8cd8-4e38-967b-862834762220",
            "display": "Krystal Hayes"
        },
        "effectiveDateTime": "2021-05-11",
        "component": [
            {
                "code": {
                    "coding": [
                        {
                            "system": "http://loinc.org",
                            "code": "8480-6",
                            "display": "Systolic Blood Pressure"
                        }
                    ]
                },
                "valueQuantity": {
                    "value": 109.0,
                    "unit": "mmHg",
                    "system": "http://unitsofmeasure.org",
                    "code": "mm[Hg]"
                }
            },
            {
                "code": {
                    "coding": [
                        {
                            "system": "http://loinc.org",
                            "code": "8462-4",
                            "display": "Diastolic Blood Pressure"
                        }
                    ]
                },
                "valueQuantity": {
                    "value": 73.0,
                    "unit": "mmHg",
                    "system": "http://unitsofmeasure.org",
                    "code": "mm[Hg]"
                }
            }
        ]
    },
    {
        "resourceType": "Observation",
        "id": "31640440-cc3f-4559-bccc-ed54bb368e01",
        "status": "final",
        "category": [
            {
                "coding": [
                    {
                        "system": "http://terminology.hl7.org/CodeSystem/observation-category",
                        "code": "vital-signs",
                        "display": "Vital Signs"
                    }
                ]
            }
        ],
        "code": {
            "coding": [
                {
                    "system": "http://loinc.org",
                    "code": "85354-9",
                    "display": "Blood pressure"
                }
            ]
        },
        "subject": {
            "reference": "Patient/31640440-cc3f-4559-bccc-ed54bb368e01",
            "display": "Richard Clark"
        },
        "effectiveDateTime": "2021-10-11",
        "component": [
            {
                "code": {
                    "coding": [
                        {
                            "system": "http://loinc.org",
                            "code": "8480-6",
                            "display": "Systolic Blood Pressure"
                        }
                    ]
                },
                "valueQuantity": {
                    "value": 106.0,
                    "unit": "mmHg",
                    "system": "http://unitsofmeasure.org",
                    "code": "mm[Hg]"
                }
            },
            {
                "code": {
                    "coding": [
                        {
                            "system": "http://loinc.org",
                            "code": "8462-4",
                            "display": "Diastolic Blood Pressure"
                        }
                    ]
                },
                "valueQuantity": {
                    "value": 62.0,
                    "unit": "mmHg",
                    "system": "http://unitsofmeasure.org",
                    "code": "mm[Hg]"
                }
            }
        ]
    },
    {
        "resourceType": "Observation",
        "id": "7894bcd4-f2f1-4ccb-8e60-3486cc7c5b42",
        "status": "final",
        "category": [
            {
                "coding": [
                    {
                        "system": "http://terminology.hl7.org/CodeSystem/observation-category",
                        "code": "vital-signs",
                        "display": "Vital Signs"
                    }
                ]
            }
        ],
        "code": {
            "coding": [
                {
                    "system": "http://loinc.org",
                    "code": "85354-9",
                    "display": "Blood pressure"
                }
            ]
        },
        "subject": {
            "reference": "Patient/7894bcd4-f2f1-4ccb-8e60-3486cc7c5b42",
            "display": "Amanda Davis"
        },
        "effectiveDateTime": "2024-12-28",
        "component": [
            {
                "code": {
                    "coding": [
                        {
                            "system": "http://loinc.org",
                            "code": "8480-6",
                            "display": "Systolic Blood Pressure"
                        }
                    ]
                },
                "valueQuantity": {
                    "value": 109.0,
                    "unit": "mmHg",
                    "system": "http://unitsofmeasure.org",
                    "code": "mm[Hg]"
                }
            },
            {
                "code": {
                    "coding": [
                        {
                            "system": "http://loinc.org",
                            "code": "8462-4",
                            "display": "Diastolic Blood Pressure"
                        }
                    ]
                },
                "valueQuantity": {
                    "value": 77.0,
                    "unit": "mmHg",
                    "system": "http://unitsofmeasure.org",
                    "code": "mm[Hg]"
                }
            }
        ]
    },
    {
        "resourceType": "Observation",
        "id": "079ffba9-63a5-4c7c-8d60-4716a19959e8",
        "status": "final",
        "category": [
            {
                "coding": [
                    {
                        "system": "http://terminology.hl7.org/CodeSystem/observation-category",
                        "code": "vital-signs",
                        "display": "Vital Signs"
                    }
                ]
            }
        ],
        "code": {
            "coding": [
                {
                    "system": "http://loinc.org",
                    "code": "85354-9",
                    "display": "Blood pressure"
                }
            ]
        },
        "subject": {
            "reference": "Patient/079ffba9-63a5-4c7c-8d60-4716a19959e8",
            "display": "Terri Rios"
        },
        "effectiveDateTime": "2024-01-24",
        "component": [
            {
                "code": {
                    "coding": [
                        {
                            "system": "http://loinc.org",
                            "code": "8480-6",
                            "display": "Systolic Blood Pressure"
                        }
                    ]
                },
                "valueQuantity": {
                    "value": 129.0,
                    "unit": "mmHg",
                    "system": "http://unitsofmeasure.org",
                    "code": "mm[Hg]"
                }
            },
            {
                "code": {
                    "coding": [
                        {
                            "system": "http://loinc.org",
                            "code": "8462-4",
                            "display": "Diastolic Blood Pressure"
                        }
                    ]
                },
                "valueQuantity": {
                    "value": 86.0,
                    "unit": "mmHg",
                    "system": "http://unitsofmeasure.org",
                    "code": "mm[Hg]"
                }
            }
        ]
    },
    {
        "resourceType": "Observation",
        "id": "be9e45f6-d3e7-4e36-8d60-398599644403",
        "status": "final",
        "category": [
            {
                "coding": [
                    {
                        "system": "http://terminology.hl7.org/CodeSystem/observation-category",
                        "code": "vital-signs",
                        "display": "Vital Signs"
                    }
                ]
            }
        ],
        "code": {
            "coding": [
                {
                    "system": "http://loinc.org",
                    "code": "85354-9",
                    "display": "Blood pressure"
                }
            ]
        },
        "subject": {
            "reference": "Patient/be9e45f6-d3e7-4e36-8d60-398599644403",
            "display": "Sean Bell"
        },
        "effectiveDateTime": "2024-11-28",
        "component": [
            {
                "code": {
                    "coding": [
                        {
                            "system": "http://loinc.org",
                            "code": "8480-6",
                            "display": "Systolic Blood Pressure"
                        }
                    ]
                },
                "valueQuantity": {
                    "value": 135.0,
                    "unit": "mmHg",
                    "system": "http://unitsofmeasure.org",
                    "code": "mm[Hg]"
                }
            },
            {
                "code": {
                    "coding": [
                        {
                            "system": "http://loinc.org",
                            "code": "8462-4",
                            "display": "Diastolic Blood Pressure"
                        }
                    ]
                },
                "valueQuantity": {
                    "value": 83.0,
                    "unit": "mmHg",
                    "system": "http://unitsofmeasure.org",
                    "code": "mm[Hg]"
                }
            }
        ]
    },
    {
        "resourceType": "Observation",
        "id": "a80f034d-eb0d-433b-ba0f-ec440220ca6f",
        "status": "final",
        "category": [
            {
                "coding": [
                    {
                        "system": "http://terminology.hl7.org/CodeSystem/observation-category",
                        "code": "vital-signs",
                        "display": "Vital Signs"
                    }
                ]
            }
        ],
        "code": {
            "coding": [
                {
                    "system": "http://loinc.org",
                    "code": "85354-9",
                    "display": "Blood pressure"
                }
            ]
        },
        "subject": {
            "reference": "Patient/a80f034d-eb0d-433b-ba0f-ec440220ca6f",
            "display": "Grant French"
        },
        "effectiveDateTime": "2022-04-21",
        "component": [
            {
                "code": {
                    "coding": [
                        {
                            "system": "http://loinc.org",
                            "code": "8480-6",
                            "display": "Systolic Blood Pressure"
                        }
                    ]
                },
                "valueQuantity": {
                    "value": 116.0,
                    "unit": "mmHg",
                    "system": "http://unitsofmeasure.org",
                    "code": "mm[Hg]"
                }
            },
            {
                "code": {
                    "coding": [
                        {
                            "system": "http://loinc.org",
                            "code": "8462-4",
                            "display": "Diastolic Blood Pressure"
                        }
                    ]
                },
                "valueQuantity": {
                    "value": 83.0,
                    "unit": "mmHg",
                    "system": "http://unitsofmeasure.org",
                    "code": "mm[Hg]"
                }
            }
        ]
    },
    {
        "resourceType": "Observation",
        "id": "408a3b59-f6d7-4471-9408-99892e040c16",
        "status": "final",
        "category": [
            {
                "coding": [
                    {
                        "system": "http://terminology.hl7.org/CodeSystem/observation-category",
                        "code": "vital-signs",
                        "display": "Vital Signs"
                    }
                ]
            }
        ],
        "code": {
            "coding": [
                {
                    "system": "http://loinc.org",
                    "code": "85354-9",
                    "display": "Blood pressure"
                }
            ]
        },
        "subject": {
            "reference": "Patient/408a3b59-f6d7-4471-9408-99892e040c16",
            "display": "Christopher Wells"
        },
        "effectiveDateTime": "2023-10-16",
        "component": [
            {
                "code": {
                    "coding": [
                        {
                            "system": "http://loinc.org",
                            "code": "8480-6",
                            "display": "Systolic Blood Pressure"
                        }
                    ]
                },
                "valueQuantity": {
                    "value": 93.0,
                    "unit": "mmHg",
                    "system": "http://unitsofmeasure.org",
                    "code": "mm[Hg]"
                }
            },
            {
                "code": {
                    "coding": [
                        {
                            "system": "http://loinc.org",
                            "code": "8462-4",
                            "display": "Diastolic Blood Pressure"
                        }
                    ]
                },
                "valueQuantity": {
                    "value": 77.0,
                    "unit": "mmHg",
                    "system": "http://unitsofmeasure.org",
                    "code": "mm[Hg]"
                }
            }
        ]
    },
    {
        "resourceType": "Observation",
        "id": "5030b083-8371-4db3-bb74-978dc2108b6d",
        "status": "final",
        "category": [
            {
                "coding": [
                    {
                        "system": "http://terminology.hl7.org/CodeSystem/observation-category",
                        "code": "vital-signs",
                        "display": "Vital Signs"
                    }
                ]
            }
        ],
        "code": {
            "coding": [
                {
                    "system": "http://loinc.org",
                    "code": "85354-9",
                    "display": "Blood pressure"
                }
            ]
        },
        "subject": {
            "reference": "Patient/5030b083-8371-4db3-bb74-978dc2108b6d",
            "display": "Roberto James"
        },
        "effectiveDateTime": "2020-01-05",
        "component": [
            {
                "code": {
                    "coding": [
                        {
                            "system": "http://loinc.org",
                            "code": "8480-6",
                            "display": "Systolic Blood Pressure"
                        }
                    ]
                },
                "valueQuantity": {
                    "value": 133.0,
                    "unit": "mmHg",
                    "system": "http://unitsofmeasure.org",
                    "code": "mm[Hg]"
                }
            },
            {
                "code": {
                    "coding": [
                        {
                            "system": "http://loinc.org",
                            "code": "8462-4",
                            "display": "Diastolic Blood Pressure"
                        }
                    ]
                },
                "valueQuantity": {
                    "value": 89.0,
                    "unit": "mmHg",
                    "system": "http://unitsofmeasure.org",
                    "code": "mm[Hg]"
                }
            }
        ]
    },
    {
        "resourceType": "Observation",
        "id": "df5df3ce-a213-46e7-b651-47d7db4370d2",
        "status": "final",
        "category": [
            {
                "coding": [
                    {
                        "system": "http://terminology.hl7.org/CodeSystem/observation-category",
                        "code": "vital-signs",
                        "display": "Vital Signs"
                    }
                ]
            }
        ],
        "code": {
            "coding": [
                {
                    "system": "http://loinc.org",
                    "code": "85354-9",
                    "display": "Blood pressure"
                }
            ]
        },
        "subject": {
            "reference": "Patient/df5df3ce-a213-46e7-b651-47d7db4370d2",
            "display": "Edwin Humphrey"
        },
        "effectiveDateTime": "2024-04-24",
        "component": [
            {
                "code": {
                    "coding": [
                        {
                            "system": "http://loinc.org",
                            "code": "8480-6",
                            "display": "Systolic Blood Pressure"
                        }
                    ]
                },
                "valueQuantity": {
                    "value": 94.0,
                    "unit": "mmHg",
                    "system": "http://unitsofmeasure.org",
                    "code": "mm[Hg]"
                }
            },
            {
                "code": {
                    "coding": [
                        {
                            "system": "http://loinc.org",
                            "code": "8462-4",
                            "display": "Diastolic Blood Pressure"
                        }
                    ]
                },
                "valueQuantity": {
                    "value": 66.0,
                    "unit": "mmHg",
                    "system": "http://unitsofmeasure.org",
                    "code": "mm[Hg]"
                }
            }
        ]
    },
    {
        "resourceType": "Observation",
        "id": "83e98b66-4327-4ade-9b4b-bc3263ab617e",
        "status": "final",
        "category": [
            {
                "coding": [
                    {
                        "system": "http://terminology.hl7.org/CodeSystem/observation-category",
                        "code": "vital-signs",
                        "display": "Vital Signs"
                    }
                ]
            }
        ],
        "code": {
            "coding": [
                {
                    "system": "http://loinc.org",
                    "code": "85354-9",
                    "display": "Blood pressure"
                }
            ]
        },
        "subject": {
            "reference": "Patient/83e98b66-4327-4ade-9b4b-bc3263ab617e",
            "display": "Dustin Cochran"
        },
        "effectiveDateTime": "2024-01-09",
        "component": [
            {
                "code": {
                    "coding": [
                        {
                            "system": "http://loinc.org",
                            "code": "8480-6",
                            "display": "Systolic Blood Pressure"
                        }
                    ]
                },
                "valueQuantity": {
                    "value": 133.0,
                    "unit": "mmHg",
                    "system": "http://unitsofmeasure.org",
                    "code": "mm[Hg]"
                }
            },
            {
                "code": {
                    "coding": [
                        {
                            "system": "http://loinc.org",
                            "code": "8462-4",
                            "display": "Diastolic Blood Pressure"
                        }
                    ]
                },
                "valueQuantity": {
                    "value": 83.0,
                    "unit": "mmHg",
                    "system": "http://unitsofmeasure.org",
                    "code": "mm[Hg]"
                }
            }
        ]
    },
    {
        "resourceType": "Observation",
        "id": "ad61e393-678c-4931-85d0-07507e99251f",
        "status": "final",
        "category": [
            {
                "coding": [
                    {
                        "system": "http://terminology.hl7.org/CodeSystem/observation-category",
                        "code": "vital-signs",
                        "display": "Vital Signs"
                    }
                ]
            }
        ],
        "code": {
            "coding": [
                {
                    "system": "http://loinc.org",
                    "code": "85354-9",
                    "display": "Blood pressure"
                }
            ]
        },
        "subject": {
            "reference": "Patient/ad61e393-678c-4931-85d0-07507e99251f",
            "display": "Aaron Flores"
        },
        "effectiveDateTime": "2022-07-22",
        "component": [
            {
                "code": {
                    "coding": [
                        {
                            "system": "http://loinc.org",
                            "code": "8480-6",
                            "display": "Systolic Blood Pressure"
                        }
                    ]
                },
                "valueQuantity": {
                    "value": 116.0,
                    "unit": "mmHg",
                    "system": "http://unitsofmeasure.org",
                    "code": "mm[Hg]"
                }
            },
            {
                "code": {
                    "coding": [
                        {
                            "system": "http://loinc.org",
                            "code": "8462-4",
                            "display": "Diastolic Blood Pressure"
                        }
                    ]
                },
                "valueQuantity": {
                    "value": 63.0,
                    "unit": "mmHg",
                    "system": "http://unitsofmeasure.org",
                    "code": "mm[Hg]"
                }
            }
        ]
    }
]