[
    {
        "resourceType": "Observation",
        "id": "7b3deb33-0d59-4465-8ccc-e3a74cfa7d15",
        "status": "final",
        "category": [
            {
                "coding": [
                    {
                        "system": "http://terminology.hl7.org/CodeSystem/observation-category",
                        "code": "vital-signs",
                        "display": "Vital Signs"
                    }
                ]
            }
        ],
        "code": {
            "coding": [
                {
                    "system": "http://loinc.org",
                    "code": "85354-9",
                    "display": "Blood pressure"
                }
            ]
        },
        "subject": {
            "reference": "Patient/7b3deb33-0d59-4465-8ccc-e3a74cfa7d15",
            "display": "Mrs. Kathy Hill"
        },
        "component": [
            {
                "code": {
                    "coding": [
                        {
                            "system": "http://loinc.org",
                            "code": "8480-6",
                            "display": "Systolic Blood Pressure"
                        }
                    ]
                },
                "valueQuantity": {
                    "value": 98.0,
                    "unit": "mmHg",
                    "system": "http://unitsofmeasure.org",
                    "code": "mm[Hg]"
                }
            },
            {
                "code": {
                    "coding": [
                        {
                            "system": "http://loinc.org",
                            "code": "8462-4",
                            "display": "Diastolic Blood Pressure"
                        }
                    ]
                },
                "valueQuantity": {
                    "value": 68.0,
                    "unit": "mmHg",
                    "system": "http://unitsofmeasure.org",
                    "code": "mm[Hg]"
                }
            }
        ]
    },
    {
        "resourceType": "Observation",
        "id": "20c781ec-5824-48f7-a0ff-449151c453d8",
        "status": "final",
        "category": [
            {
                "coding": [
                    {
                        "system": "http://terminology.hl7.org/CodeSystem/observation-category",
                        "code": "vital-signs",
                        "display": "Vital Signs"
                    }
                ]
            }
        ],
        "code": {
            "coding": [
                {
                    "system": "http://loinc.org",
                    "code": "85354-9",
                    "display": "Blood pressure"
                }
            ]
        },
        "subject": {
            "reference": "Patient/20c781ec-5824-48f7-a0ff-449151c453d8",
            "display": "Joshua Hill"
        },
        "component": [
            {
                "code": {
                    "coding": [
                        {
                            "system": "http://loinc.org",
                            "code": "8480-6",
                            "display": "Systolic Blood Pressure"
                        }
                    ]
                },
                "valueQuantity": {
                    "value": 100.0,
                    "unit": "mmHg",
                    "system": "http://unitsofmeasure.org",
                    "code": "mm[Hg]"
                }
            },
            {
                "code": {
                    "coding": [
                        {
                            "system": "http://loinc.org",
                            "code": "8462-4",
                            "display": "Diastolic Blood Pressure"
                        }
                    ]
                },
                "valueQuantity": {
                    "value": 63.0,
                    "unit": "mmHg",
                    "system": "http://unitsofmeasure.org",
                    "code": "mm[Hg]"
                }
            }
        ]
    },
    {
        "resourceType": "Observation",
        "id": "427bf362-7c48-4aa4-a0c6-b7954c42cef3",
        "status": "final",
        "category": [
            {
                "coding": [
                    {
                        "system": "http://terminology.hl7.org/CodeSystem/observation-category",
                        "code": "vital-signs",
                        "display": "Vital Signs"
                    }
                ]
            }
        ],
        "code": {
            "coding": [
                {
                    "system": "http://loinc.org",
                    "code": "85354-9",
                    "display": "Blood pressure"
                }
            ]
        },
        "subject": {
            "reference": "Patient/427bf362-7c48-4aa4-a0c6-b7954c42cef3",
            "display": "Grace Johnson"
        },
        "component": [
            {
                "code": {
                    "coding": [
                        {
                            "system": "http://loinc.org",
                            "code": "8480-6",
                            "display": "Systolic Blood Pressure"
                        }
                    ]
                },
                "valueQuantity": {
                    "value": 111.0,
                    "unit": "mmHg",
                    "system": "http://unitsofmeasure.org",
                    "code": "mm[Hg]"
                }
            },
            {
                "code": {
                    "coding": [
                        {
                            "system": "http://loinc.org",
                            "code": "8462-4",
                            "display": "Diastolic Blood Pressure"
                        }
                    ]
                },
                "valueQuantity": {
                    "value": 75.0,
                    "unit": "mmHg",
                    "system": "http://unitsofmeasure.org",
                    "code": "mm[Hg]"
                }
            }
        ]
    },
    {
        "resourceType": "Observation",
        "id": "9c541c09-b175-4e1b-bbef-93b31dbc7b9d",
        "status": "final",
        "category": [
            {
                "coding": [
                    {
                        "system": "http://terminology.hl7.org/CodeSystem/observation-category",
                        "code": "vital-signs",
                        "display": "Vital Signs"
                    }
                ]
            }
        ],
        "code": {
            "coding": [
                {
                    "system": "http://loinc.org",
                    "code": "85354-9",
                    "display": "Blood pressure"
                }
            ]
        },
        "subject": {
            "reference": "Patient/9c541c09-b175-4e1b-bbef-93b31dbc7b9d",
            "display": "Ashley Roberts"
        },
        "component": [
            {
                "code": {
                    "coding": [
                        {
                            "system": "http://loinc.org",
                            "code": "8480-6",
                            "display": "Systolic Blood Pressure"
                        }
                    ]
                },
                "valueQuantity": {
                    "value": 116.0,
                    "unit": "mmHg",
                    "system": "http://unitsofmeasure.org",
                    "code": "mm[Hg]"
                }
            },
            {
                "code": {
                    "coding": [
                        {
                            "system": "http://loinc.org",
                            "code": "8462-4",
                            "display": "Diastolic Blood Pressure"
                        }
                    ]
                },
                "valueQuantity": {
                    "value": 84.0,
                    "unit": "mmHg",
                    "system": "http://unitsofmeasure.org",
                    "code": "mm[Hg]"
                }
            }
        ]
    },
    {
        "resourceType": "Observation",
        "id": "91c508aa-ab07-4f74-9470-501343eecdc9",
        "status": "final",
        "category": [
            {
                "coding": [
                    {
                        "system": "http://terminology.hl7.org/CodeSystem/observation-category",
                        "code": "vital-signs",
                        "display": "Vital Signs"
                    }
                ]
            }
        ],
        "code": {
            "coding": [
                {
                    "system": "http://loinc.org",
                    "code": "85354-9",
                    "display": "Blood pressure"
                }
            ]
        },
        "subject": {
            "reference": "Patient/91c508aa-ab07-4f74-9470-501343eecdc9",
            "display": "Jessica Hardin"
        },
        "component": [
            {
                "code": {
                    "coding": [
                        {
                            "system": "http://loinc.org",
                            "code": "8480-6",
                            "display": "Systolic Blood Pressure"
                        }
                    ]
                },
                "valueQuantity": {
                    "value": 135.0,
                    "unit": "mmHg",
                    "system": "http://unitsofmeasure.org",
                    "code": "mm[Hg]"
                }
            },
            {
                "code": {
                    "coding": [
                        {
                            "system": "http://loinc.org",
                            "code": "8462-4",
                            "display": "Diastolic Blood Pressure"
                        }
                    ]
                },
                "valueQuantity": {
                    "value": 87.0,
                    "unit": "mmHg",
                    "system": "http://unitsofmeasure.org",
                    "code": "mm[Hg]"
                }
            }
        ]
    },
    {
        "resourceType": "Observation",
        "id": "3107ed94-9524-44af-a35c-64c1f9bf8ca7",
        "status": "final",
        "category": [
            {
                "coding": [
                    {
                        "system": "http://terminology.hl7.org/CodeSystem/observation-category",
                        "code": "vital-signs",
                        "display": "Vital Signs"
                    }
                ]
            }
        ],
        "code": {
            "coding": [
                {
                    "system": "http://loinc.org",
                    "code": "85354-9",
                    "display": "Blood pressure"
                }
            ]
        },
        "subject": {
            "reference": "Patient/3107ed94-9524-44af-a35c-64c1f9bf8ca7",
            "display": "Julie Pearson"
        },
        "component": [
            {
                "code": {
                    "coding": [
                        {
                            "system": "http://loinc.org",
                            "code": "8480-6",
                            "display": "Systolic Blood Pressure"
                        }
                    ]
                },
                "valueQuantity": {
                    "value": 107.0,
                    "unit": "mmHg",
                    "system": "http://unitsofmeasure.org",
                    "code": "mm[Hg]"
                }
            },
            {
                "code": {
                    "coding": [
                        {
                            "system": "http://loinc.org",
                            "code": "8462-4",
                            "display": "Diastolic Blood Pressure"
                        }
                    ]
                },
                "valueQuantity": {
                    "value": 65.0,
                    "unit": "mmHg",
                    "system": "http://unitsofmeasure.org",
                    "code": "mm[Hg]"
                }
            }
        ]
    },
    {
        "resourceType": "Observation",
        "id": "16435ca7-95d3-4689-88ba-a7461c623ca4",
        "status": "final",
        "category": [
            {
                "coding": [
                    {
                        "system": "http://terminology.hl7.org/CodeSystem/observation-category",
                        "code": "vital-signs",
                        "display": "Vital Signs"
                    }
                ]
            }
        ],
        "code": {
            "coding": [
                {
                    "system": "http://loinc.org",
                    "code": "85354-9",
                    "display": "Blood pressure"
                }
            ]
        },
        "subject": {
            "reference": "Patient/16435ca7-95d3-4689-88ba-a7461c623ca4",
            "display": "Nicole Olson"
        },
        "component": [
            {
                "code": {
                    "coding": [
                        {
                            "system": "http://loinc.org",
                            "code": "8480-6",
                            "display": "Systolic Blood Pressure"
                        }
                    ]
                },
                "valueQuantity": {
                    "value": 116.0,
                    "unit": "mmHg",
                    "system": "http://unitsofmeasure.org",
                    "code": "mm[Hg]"
                }
            },
            {
                "code": {
                    "coding": [
                        {
                            "system": "http://loinc.org",
                            "code": "8462-4",
                            "display": "Diastolic Blood Pressure"
                        }
                    ]
                },
                "valueQuantity": {
                    "value": 67.0,
                    "unit": "mmHg",
                    "system": "http://unitsofmeasure.org",
                    "code": "mm[Hg]"
                }
            }
        ]
    },
    {
        "resourceType": "Observation",
        "id": "c951a3f9-29b2-4190-87e0-8d6e6c4da206",
        "status": "final",
        "category": [
            {
                "coding": [
                    {
                        "system": "http://terminology.hl7.org/CodeSystem/observation-category",
                        "code": "vital-signs",
                        "display": "Vital Signs"
                    }
                ]
            }
        ],
        "code": {
            "coding": [
                {
                    "system": "http://loinc.org",
                    "code": "85354-9",
                    "display": "Blood pressure"
                }
            ]
        },
        "subject": {
            "reference": "Patient/c951a3f9-29b2-4190-87e0-8d6e6c4da206",
            "display": "Ryan Lopez"
        },
        "component": [
            {
                "code": {
                    "coding": [
                        {
                            "system": "http://loinc.org",
                            "code": "8480-6",
                            "display": "Systolic Blood Pressure"
                        }
                    ]
                },
                "valueQuantity": {
                    "value": 98.0,
                    "unit": "mmHg",
                    "system": "http://unitsofmeasure.org",
                    "code": "mm[Hg]"
                }
            },
            {
                "code": {
                    "coding": [
                        {
                            "system": "http://loinc.org",
                            "code": "8462-4",
                            "display": "Diastolic Blood Pressure"
                        }
                    ]
                },
                "valueQuantity": {
                    "value": 69.0,
                    "unit": "mmHg",
                    "system": "http://unitsofmeasure.org",
                    "code": "mm[Hg]"
                }
            }
        ]
    },
    {
        "resourceType": "Observation",
        "id": "e86874cf-a95d-41b5-a89e-c3b6ff5ccb22",
        "status": "final",
        "category": [
            {
                "coding": [
                    {
                        "system": "http://terminology.hl7.org/CodeSystem/observation-category",
                        "code": "vital-signs",
                        "display": "Vital Signs"
                    }
                ]
            }
        ],
        "code": {
            "coding": [
                {
                    "system": "http://loinc.org",
                    "code": "85354-9",
                    "display": "Blood pressure"
                }
            ]
        },
        "subject": {
            "reference": "Patient/e86874cf-a95d-41b5-a89e-c3b6ff5ccb22",
            "display": "Bonnie Wilson"
        },
        "component": [
            {
                "code": {
                    "coding": [
                        {
                            "system": "http://loinc.org",
                            "code": "8480-6",
                            "display": "Systolic Blood Pressure"
                        }
                    ]
                },
                "valueQuantity": {
                    "value": 119.0,
                    "unit": "mmHg",
                    "system": "http://unitsofmeasure.org",
                    "code": "mm[Hg]"
                }
            },
            {
                "code": {
                    "coding": [
                        {
                            "system": "http://loinc.org",
                            "code": "8462-4",
                            "display": "Diastolic Blood Pressure"
                        }
                    ]
                },
                "valueQuantity": {
                    "value": 79.0,
                    "unit": "mmHg",
                    "system": "http://unitsofmeasure.org",
                    "code": "mm[Hg]"
                }
            }
        ]
    },
    {
        "resourceType": "Observation",
        "id": "a03d4a6f-6442-43d7-9eb0-4f34679e5ca0",
        "status": "final",
        "category": [
            {
                "coding": [
                    {
                        "system": "http://terminology.hl7.org/CodeSystem/observation-category",
                        "code": "vital-signs",
                        "display": "Vital Signs"
                    }
                ]
            }
        ],
        "code": {
            "coding": [
                {
                    "system": "http://loinc.org",
                    "code": "85354-9",
                    "display": "Blood pressure"
                }
            ]
        },
        "subject": {
            "reference": "Patient/a03d4a6f-6442-43d7-9eb0-4f34679e5ca0",
            "display": "Debra Thomas"
        },
        "component": [
            {
                "code": {
                    "coding": [
                        {
                            "system": "http://loinc.org",
                            "code": "8480-6",
                            "display": "Systolic Blood Pressure"
                        }
                    ]
                },
                "valueQuantity": {
                    "value": 114.0,
                    "unit": "mmHg",
                    "system": "http://unitsofmeasure.org",
                    "code": "mm[Hg]"
                }
            },
            {
                "code": {
                    "coding": [
                        {
                            "system": "http://loinc.org",
                            "code": "8462-4",
                            "display": "Diastolic Blood Pressure"
                        }
                    ]
                },
                "valueQuantity": {
                    "value": 74.0,
                    "unit": "mmHg",
                    "system": "http://unitsofmeasure.org",
                    "code": "mm[Hg]"
                }
            }
        ]
    }
]