[
    {
        "resourceType": "Observation",
        "id": "901182a7-dcc7-4685-b115-3a2b58eddc71",
        "status": "final",
        "category": [
            {
                "coding": [
                    {
                        "system": "http://terminology.hl7.org/CodeSystem/observation-category",
                        "code": "vital-signs",
                        "display": "Vital Signs"
                    }
                ]
            }
        ],
        "code": {
            "coding": [
                {
                    "system": "http://loinc.org",
                    "code": "85354-9",
                    "display": "Blood pressure"
                }
            ]
        },
        "subject": {
            "reference": "Patient/901182a7-dcc7-4685-b115-3a2b58eddc71",
            "display": "James Perez"
        },
        "effectiveDateTime": "2021-06-08",
        "component": [
            {
                "code": {
                    "coding": [
                        {
                            "system": "http://loinc.org",
                            "code": "8480-6",
                            "display": "Systolic Blood Pressure"
                        }
                    ]
                },
                "valueQuantity": {
                    "value": 104.0,
                    "unit": "mmHg",
                    "system": "http://unitsofmeasure.org",
                    "code": "mm[Hg]"
                }
            },
            {
                "code": {
                    "coding": [
                        {
                            "system": "http://loinc.org",
                            "code": "8462-4",
                            "display": "Diastolic Blood Pressure"
                        }
                    ]
                },
                "valueQuantity": {
                    "value": 73.0,
                    "unit": "mmHg",
                    "system": "http://unitsofmeasure.org",
                    "code": "mm[Hg]"
                }
            }
        ]
    },
    {
        "resourceType": "Observation",
        "id": "9eba0f78-68ef-4188-9c58-32beace3f1e8",
        "status": "final",
        "category": [
            {
                "coding": [
                    {
                        "system": "http://terminology.hl7.org/CodeSystem/observation-category",
                        "code": "vital-signs",
                        "display": "Vital Signs"
                    }
                ]
            }
        ],
        "code": {
            "coding": [
                {
                    "system": "http://loinc.org",
                    "code": "85354-9",
                    "display": "Blood pressure"
                }
            ]
        },
        "subject": {
            "reference": "Patient/9eba0f78-68ef-4188-9c58-32beace3f1e8",
            "display": "Donna Kelley"
        },
        "effectiveDateTime": "2023-01-05",
        "component": [
            {
                "code": {
                    "coding": [
                        {
                            "system": "http://loinc.org",
                            "code": "8480-6",
                            "display": "Systolic Blood Pressure"
                        }
                    ]
                },
                "valueQuantity": {
                    "value": 114.0,
                    "unit": "mmHg",
                    "system": "http://unitsofmeasure.org",
                    "code": "mm[Hg]"
                }
            },
            {
                "code": {
                    "coding": [
                        {
                            "system": "http://loinc.org",
                            "code": "8462-4",
                            "display": "Diastolic Blood Pressure"
                        }
                    ]
                },
                "valueQuantity": {
                    "value": 88.0,
                    "unit": "mmHg",
                    "system": "http://unitsofmeasure.org",
                    "code": "mm[Hg]"
                }
            }
        ]
    },
    {
        "resourceType": "Observation",
        "id": "82f3d346-0cb4-408b-87e5-c6fa135a0863",
        "status": "final",
        "category": [
            {
                "coding": [
                    {
                        "system": "http://terminology.hl7.org/CodeSystem/observation-category",
                        "code": "vital-signs",
                        "display": "Vital Signs"
                    }
                ]
            }
        ],
        "code": {
            "coding": [
                {
                    "system": "http://loinc.org",
                    "code": "85354-9",
                    "display": "Blood pressure"
                }
            ]
        },
        "subject": {
            "reference": "Patient/82f3d346-0cb4-408b-87e5-c6fa135a0863",
            "display": "Bradley Walker"
        },
        "effectiveDateTime": "2021-12-29",
        "component": [
            {
                "code": {
                    "coding": [
                        {
                            "system": "http://loinc.org",
                            "code": "8480-6",
                            "display": "Systolic Blood Pressure"
                        }
                    ]
                },
                "valueQuantity": {
                    "value": 114.0,
                    "unit": "mmHg",
                    "system": "http://unitsofmeasure.org",
                    "code": "mm[Hg]"
                }
            },
            {
                "code": {
                    "coding": [
                        {
                            "system": "http://loinc.org",
                            "code": "8462-4",
                            "display": "Diastolic Blood Pressure"
                        }
                    ]
                },
                "valueQuantity": {
                    "value": 61.0,
                    "unit": "mmHg",
                    "system": "http://unitsofmeasure.org",
                    "code": "mm[Hg]"
                }
            }
        ]
    },
    {
        "resourceType": "Observation",
        "id": "fd3bd16c-7b50-40ce-8a07-6d36146fdd4b",
        "status": "final",
        "category": [
            {
                "coding": [
                    {
                        "system": "http://terminology.hl7.org/CodeSystem/observation-category",
                        "code": "vital-signs",
                        "display": "Vital Signs"
                    }
                ]
            }
        ],
        "code": {
            "coding": [
                {
                    "system": "http://loinc.org",
                    "code": "85354-9",
                    "display": "Blood pressure"
                }
            ]
        },
        "subject": {
            "reference": "Patient/fd3bd16c-7b50-40ce-8a07-6d36146fdd4b",
            "display": "James Zuniga"
        },
        "effectiveDateTime": "2022-10-29",
        "component": [
            {
                "code": {
                    "coding": [
                        {
                            "system": "http://loinc.org",
                            "code": "8480-6",
                            "display": "Systolic Blood Pressure"
                        }
                    ]
                },
                "valueQuantity": {
                    "value": 136.0,
                    "unit": "mmHg",
                    "system": "http://unitsofmeasure.org",
                    "code": "mm[Hg]"
                }
            },
            {
                "code": {
                    "coding": [
                        {
                            "system": "http://loinc.org",
                            "code": "8462-4",
                            "display": "Diastolic Blood Pressure"
                        }
                    ]
                },
                "valueQuantity": {
                    "value": 84.0,
                    "unit": "mmHg",
                    "system": "http://unitsofmeasure.org",
                    "code": "mm[Hg]"
                }
            }
        ]
    },
    {
        "resourceType": "Observation",
        "id": "568cdde6-863b-415c-a9cc-90107fc03a1a",
        "status": "final",
        "category": [
            {
                "coding": [
                    {
                        "system": "http://terminology.hl7.org/CodeSystem/observation-category",
                        "code": "vital-signs",
                        "display": "Vital Signs"
                    }
                ]
            }
        ],
        "code": {
            "coding": [
                {
                    "system": "http://loinc.org",
                    "code": "85354-9",
                    "display": "Blood pressure"
                }
            ]
        },
        "subject": {
            "reference": "Patient/568cdde6-863b-415c-a9cc-90107fc03a1a",
            "display": "Felicia Yang"
        },
        "effectiveDateTime": "2020-02-02",
        "component": [
            {
                "code": {
                    "coding": [
                        {
                            "system": "http://loinc.org",
                            "code": "8480-6",
                            "display": "Systolic Blood Pressure"
                        }
                    ]
                },
                "valueQuantity": {
                    "value": 113.0,
                    "unit": "mmHg",
                    "system": "http://unitsofmeasure.org",
                    "code": "mm[Hg]"
                }
            },
            {
                "code": {
                    "coding": [
                        {
                            "system": "http://loinc.org",
                            "code": "8462-4",
                            "display": "Diastolic Blood Pressure"
                        }
                    ]
                },
                "valueQuantity": {
                    "value": 66.0,
                    "unit": "mmHg",
                    "system": "http://unitsofmeasure.org",
                    "code": "mm[Hg]"
                }
            }
        ]
    },
    {
        "resourceType": "Observation",
        "id": "d9fd318a-5c24-4d28-bf18-f1794e05618a",
        "status": "final",
        "category": [
            {
                "coding": [
                    {
                        "system": "http://terminology.hl7.org/CodeSystem/observation-category",
                        "code": "vital-signs",
                        "display": "Vital Signs"
                    }
                ]
            }
        ],
        "code": {
            "coding": [
                {
                    "system": "http://loinc.org",
                    "code": "85354-9",
                    "display": "Blood pressure"
                }
            ]
        },
        "subject": {
            "reference": "Patient/d9fd318a-5c24-4d28-bf18-f1794e05618a",
            "display": "Bianca Williams"
        },
        "effectiveDateTime": "2024-06-29",
        "component": [
            {
                "code": {
                    "coding": [
                        {
                            "system": "http://loinc.org",
                            "code": "8480-6",
                            "display": "Systolic Blood Pressure"
                        }
                    ]
                },
                "valueQuantity": {
                    "value": 100.0,
                    "unit": "mmHg",
                    "system": "http://unitsofmeasure.org",
                    "code": "mm[Hg]"
                }
            },
            {
                "code": {
                    "coding": [
                        {
                            "system": "http://loinc.org",
                            "code": "8462-4",
                            "display": "Diastolic Blood Pressure"
                        }
                    ]
                },
                "valueQuantity": {
                    "value": 77.0,
                    "unit": "mmHg",
                    "system": "http://unitsofmeasure.org",
                    "code": "mm[Hg]"
                }
            }
        ]
    },
    {
        "resourceType": "Observation",
        "id": "63b8a70b-4354-46a1-9395-330f18ced2eb",
        "status": "final",
        "category": [
            {
                "coding": [
                    {
                        "system": "http://terminology.hl7.org/CodeSystem/observation-category",
                        "code": "vital-signs",
                        "display": "Vital Signs"
                    }
                ]
            }
        ],
        "code": {
            "coding": [
                {
                    "system": "http://loinc.org",
                    "code": "85354-9",
                    "display": "Blood pressure"
                }
            ]
        },
        "subject": {
            "reference": "Patient/63b8a70b-4354-46a1-9395-330f18ced2eb",
            "display": "Brandi Jackson"
        },
        "effectiveDateTime": "2020-09-13",
        "component": [
            {
                "code": {
                    "coding": [
                        {
                            "system": "http://loinc.org",
                            "code": "8480-6",
                            "display": "Systolic Blood Pressure"
                        }
                    ]
                },
                "valueQuantity": {
                    "value": 97.0,
                    "unit": "mmHg",
                    "system": "http://unitsofmeasure.org",
                    "code": "mm[Hg]"
                }
            },
            {
                "code": {
                    "coding": [
                        {
                            "system": "http://loinc.org",
                            "code": "8462-4",
                            "display": "Diastolic Blood Pressure"
                        }
                    ]
                },
                "valueQuantity": {
                    "value": 63.0,
                    "unit": "mmHg",
                    "system": "http://unitsofmeasure.org",
                    "code": "mm[Hg]"
                }
            }
        ]
    },
    {
        "resourceType": "Observation",
        "id": "1b5dbce4-ad6d-44d6-95bb-0fe64d4cad4e",
        "status": "final",
        "category": [
            {
                "coding": [
                    {
                        "system": "http://terminology.hl7.org/CodeSystem/observation-category",
                        "code": "vital-signs",
                        "display": "Vital Signs"
                    }
                ]
            }
        ],
        "code": {
            "coding": [
                {
                    "system": "http://loinc.org",
                    "code": "85354-9",
                    "display": "Blood pressure"
                }
            ]
        },
        "subject": {
            "reference": "Patient/1b5dbce4-ad6d-44d6-95bb-0fe64d4cad4e",
            "display": "Juan Holmes"
        },
        "effectiveDateTime": "2023-08-11",
        "component": [
            {
                "code": {
                    "coding": [
                        {
                            "system": "http://loinc.org",
                            "code": "8480-6",
                            "display": "Systolic Blood Pressure"
                        }
                    ]
                },
                "valueQuantity": {
                    "value": 132.0,
                    "unit": "mmHg",
                    "system": "http://unitsofmeasure.org",
                    "code": "mm[Hg]"
                }
            },
            {
                "code": {
                    "coding": [
                        {
                            "system": "http://loinc.org",
                            "code": "8462-4",
                            "display": "Diastolic Blood Pressure"
                        }
                    ]
                },
                "valueQuantity": {
                    "value": 87.0,
                    "unit": "mmHg",
                    "system": "http://unitsofmeasure.org",
                    "code": "mm[Hg]"
                }
            }
        ]
    },
    {
        "resourceType": "Observation",
        "id": "3d49a292-d399-4298-b019-8af2d5b1466d",
        "status": "final",
        "category": [
            {
                "coding": [
                    {
                        "system": "http://terminology.hl7.org/CodeSystem/observation-category",
                        "code": "vital-signs",
                        "display": "Vital Signs"
                    }
                ]
            }
        ],
        "code": {
            "coding": [
                {
                    "system": "http://loinc.org",
                    "code": "85354-9",
                    "display": "Blood pressure"
                }
            ]
        },
        "subject": {
            "reference": "Patient/3d49a292-d399-4298-b019-8af2d5b1466d",
            "display": "Wendy Fernandez"
        },
        "effectiveDateTime": "2024-05-17",
        "component": [
            {
                "code": {
                    "coding": [
                        {
                            "system": "http://loinc.org",
                            "code": "8480-6",
                            "display": "Systolic Blood Pressure"
                        }
                    ]
                },
                "valueQuantity": {
                    "value": 92.0,
                    "unit": "mmHg",
                    "system": "http://unitsofmeasure.org",
                    "code": "mm[Hg]"
                }
            },
            {
                "code": {
                    "coding": [
                        {
                            "system": "http://loinc.org",
                            "code": "8462-4",
                            "display": "Diastolic Blood Pressure"
                        }
                    ]
                },
                "valueQuantity": {
                    "value": 86.0,
                    "unit": "mmHg",
                    "system": "http://unitsofmeasure.org",
                    "code": "mm[Hg]"
                }
            }
        ]
    },
    {
        "resourceType": "Observation",
        "id": "1dc25808-92fc-487d-9384-f3c8d1f0182f",
        "status": "final",
        "category": [
            {
                "coding": [
                    {
                        "system": "http://terminology.hl7.org/CodeSystem/observation-category",
                        "code": "vital-signs",
                        "display": "Vital Signs"
                    }
                ]
            }
        ],
        "code": {
            "coding": [
                {
                    "system": "http://loinc.org",
                    "code": "85354-9",
                    "display": "Blood pressure"
                }
            ]
        },
        "subject": {
            "reference": "Patient/1dc25808-92fc-487d-9384-f3c8d1f0182f",
            "display": "Michelle Livingston"
        },
        "effectiveDateTime": "2022-07-30",
        "component": [
            {
                "code": {
                    "coding": [
                        {
                            "system": "http://loinc.org",
                            "code": "8480-6",
                            "display": "Systolic Blood Pressure"
                        }
                    ]
                },
                "valueQuantity": {
                    "value": 94.0,
                    "unit": "mmHg",
                    "system": "http://unitsofmeasure.org",
                    "code": "mm[Hg]"
                }
            },
            {
                "code": {
                    "coding": [
                        {
                            "system": "http://loinc.org",
                            "code": "8462-4",
                            "display": "Diastolic Blood Pressure"
                        }
                    ]
                },
                "valueQuantity": {
                    "value": 87.0,
                    "unit": "mmHg",
                    "system": "http://unitsofmeasure.org",
                    "code": "mm[Hg]"
                }
            }
        ]
    },
    {
        "resourceType": "Observation",
        "id": "dafd0a67-3588-43df-b949-a8a9857877ea",
        "status": "final",
        "category": [
            {
                "coding": [
                    {
                        "system": "http://terminology.hl7.org/CodeSystem/observation-category",
                        "code": "vital-signs",
                        "display": "Vital Signs"
                    }
                ]
            }
        ],
        "code": {
            "coding": [
                {
                    "system": "http://loinc.org",
                    "code": "85354-9",
                    "display": "Blood pressure"
                }
            ]
        },
        "subject": {
            "reference": "Patient/dafd0a67-3588-43df-b949-a8a9857877ea",
            "display": "Stephen Johnson"
        },
        "effectiveDateTime": "2020-12-03",
        "component": [
            {
                "code": {
                    "coding": [
                        {
                            "system": "http://loinc.org",
                            "code": "8480-6",
                            "display": "Systolic Blood Pressure"
                        }
                    ]
                },
                "valueQuantity": {
                    "value": 114.0,
                    "unit": "mmHg",
                    "system": "http://unitsofmeasure.org",
                    "code": "mm[Hg]"
                }
            },
            {
                "code": {
                    "coding": [
                        {
                            "system": "http://loinc.org",
                            "code": "8462-4",
                            "display": "Diastolic Blood Pressure"
                        }
                    ]
                },
                "valueQuantity": {
                    "value": 61.0,
                    "unit": "mmHg",
                    "system": "http://unitsofmeasure.org",
                    "code": "mm[Hg]"
                }
            }
        ]
    },
    {
        "resourceType": "Observation",
        "id": "a857c611-800d-44df-b394-68ee9c226d4c",
        "status": "final",
        "category": [
            {
                "coding": [
                    {
                        "system": "http://terminology.hl7.org/CodeSystem/observation-category",
                        "code": "vital-signs",
                        "display": "Vital Signs"
                    }
                ]
            }
        ],
        "code": {
            "coding": [
                {
                    "system": "http://loinc.org",
                    "code": "85354-9",
                    "display": "Blood pressure"
                }
            ]
        },
        "subject": {
            "reference": "Patient/a857c611-800d-44df-b394-68ee9c226d4c",
            "display": "Michael Charles"
        },
        "effectiveDateTime": "2020-11-02",
        "component": [
            {
                "code": {
                    "coding": [
                        {
                            "system": "http://loinc.org",
                            "code": "8480-6",
                            "display": "Systolic Blood Pressure"
                        }
                    ]
                },
                "valueQuantity": {
                    "value": 119.0,
                    "unit": "mmHg",
                    "system": "http://unitsofmeasure.org",
                    "code": "mm[Hg]"
                }
            },
            {
                "code": {
                    "coding": [
                        {
                            "system": "http://loinc.org",
                            "code": "8462-4",
                            "display": "Diastolic Blood Pressure"
                        }
                    ]
                },
                "valueQuantity": {
                    "value": 68.0,
                    "unit": "mmHg",
                    "system": "http://unitsofmeasure.org",
                    "code": "mm[Hg]"
                }
            }
        ]
    },
    {
        "resourceType": "Observation",
        "id": "bf20c680-c370-45ae-b6eb-cb5bdc729b96",
        "status": "final",
        "category": [
            {
                "coding": [
                    {
                        "system": "http://terminology.hl7.org/CodeSystem/observation-category",
                        "code": "vital-signs",
                        "display": "Vital Signs"
                    }
                ]
            }
        ],
        "code": {
            "coding": [
                {
                    "system": "http://loinc.org",
                    "code": "85354-9",
                    "display": "Blood pressure"
                }
            ]
        },
        "subject": {
            "reference": "Patient/bf20c680-c370-45ae-b6eb-cb5bdc729b96",
            "display": "Jonathan Lewis"
        },
        "effectiveDateTime": "2023-07-23",
        "component": [
            {
                "code": {
                    "coding": [
                        {
                            "system": "http://loinc.org",
                            "code": "8480-6",
                            "display": "Systolic Blood Pressure"
                        }
                    ]
                },
                "valueQuantity": {
                    "value": 126.0,
                    "unit": "mmHg",
                    "system": "http://unitsofmeasure.org",
                    "code": "mm[Hg]"
                }
            },
            {
                "code": {
                    "coding": [
                        {
                            "system": "http://loinc.org",
                            "code": "8462-4",
                            "display": "Diastolic Blood Pressure"
                        }
                    ]
                },
                "valueQuantity": {
                    "value": 87.0,
                    "unit": "mmHg",
                    "system": "http://unitsofmeasure.org",
                    "code": "mm[Hg]"
                }
            }
        ]
    },
    {
        "resourceType": "Observation",
        "id": "95312795-f1a2-4737-a90c-da65d973188b",
        "status": "final",
        "category": [
            {
                "coding": [
                    {
                        "system": "http://terminology.hl7.org/CodeSystem/observation-category",
                        "code": "vital-signs",
                        "display": "Vital Signs"
                    }
                ]
            }
        ],
        "code": {
            "coding": [
                {
                    "system": "http://loinc.org",
                    "code": "85354-9",
                    "display": "Blood pressure"
                }
            ]
        },
        "subject": {
            "reference": "Patient/95312795-f1a2-4737-a90c-da65d973188b",
            "display": "Jennifer Butler"
        },
        "effectiveDateTime": "2021-02-27",
        "component": [
            {
                "code": {
                    "coding": [
                        {
                            "system": "http://loinc.org",
                            "code": "8480-6",
                            "display": "Systolic Blood Pressure"
                        }
                    ]
                },
                "valueQuantity": {
                    "value": 105.0,
                    "unit": "mmHg",
                    "system": "http://unitsofmeasure.org",
                    "code": "mm[Hg]"
                }
            },
            {
                "code": {
                    "coding": [
                        {
                            "system": "http://loinc.org",
                            "code": "8462-4",
                            "display": "Diastolic Blood Pressure"
                        }
                    ]
                },
                "valueQuantity": {
                    "value": 70.0,
                    "unit": "mmHg",
                    "system": "http://unitsofmeasure.org",
                    "code": "mm[Hg]"
                }
            }
        ]
    }
]